trial,opt1Chosen,blueRewarded,reactionTime,chosenOptionRewarded,stableBlock,pointsWon,trueProbability,subnr,blueReward,greenReward
0,1,1,52.77283706,1,1,27,0.75,1,27,15
1,1,1,5.115856079,1,1,78,0.75,1,78,85
2,1,1,2.004800589,1,1,64,0.75,1,64,29
3,0,1,1.006774001,0,1,0,0.75,1,73,91
4,1,1,2.773868966,1,1,90,0.75,1,90,12
5,1,0,7.990726118,0,1,0,0.75,1,77,62
6,1,1,3.082646263,1,1,21,0.75,1,21,29
7,0,1,2.005009733,0,1,0,0.75,1,5,51
8,0,0,4.432614939,1,1,54,0.75,1,16,54
9,1,1,2.911915609,1,1,72,0.75,1,72,6
10,0,1,3.474386555,0,1,0,0.75,1,13,44
11,1,1,2.410514301,1,1,23,0.75,1,23,22
12,1,0,2.978280663,0,1,0,0.75,1,46,92
13,0,1,6.511164976,0,1,0,0.75,1,47,70
14,0,1,1.469784653,0,1,0,0.75,1,9,12
15,1,1,1.367016483,1,1,51,0.75,1,51,36
16,0,1,1.631280422,0,1,0,0.75,1,8,31
17,0,1,3.213005029,0,1,0,0.75,1,17,31
18,1,1,3.137333598,1,1,75,0.75,1,75,57
19,0,1,2.224326091,0,1,0,0.75,1,34,80
20,1,1,1.957264258,1,1,31,0.75,1,31,47
21,1,1,1.873670322,1,1,82,0.75,1,82,80
22,1,1,2.429784786,1,1,99,0.75,1,99,42
23,0,1,1.18894279,0,1,0,0.75,1,97,74
24,1,1,3.565057022,1,1,58,0.75,1,58,36
25,0,1,2.536167072,0,1,0,0.75,1,24,95
26,1,1,3.438028722,1,1,30,0.75,1,30,76
27,1,1,1.171286177,1,1,68,0.75,1,68,2
28,0,1,1.046102381,0,1,0,0.75,1,58,76
29,0,0,1.696316767,1,1,92,0.75,1,20,92
30,1,1,1.905140642,1,1,96,0.75,1,96,35
31,1,1,1.787359233,1,1,34,0.75,1,34,8
32,0,1,1.868301306,0,1,0,0.75,1,15,86
33,1,1,1.128285508,1,1,33,0.75,1,33,10
34,0,0,5.656022243,1,1,55,0.75,1,12,55
35,1,1,2.32929788,1,1,78,0.75,1,78,92
36,1,0,2.541147019,0,1,0,0.75,1,80,53
37,1,1,0.908282183,1,1,59,0.75,1,59,6
38,0,1,2.344252385,0,1,0,0.75,1,8,45
39,0,1,0.867176536,0,1,0,0.75,1,20,70
40,1,0,1.009833439,0,1,0,0.75,1,78,27
41,0,1,0.717820361,0,1,0,0.75,1,36,90
42,0,0,1.530777962,1,1,46,0.75,1,84,46
43,0,1,0.811671351,0,1,0,0.75,1,14,24
44,1,0,1.004262298,0,1,0,0.75,1,70,20
45,0,1,0.968237266,0,1,0,0.75,1,20,85
46,1,0,1.617634635,0,1,0,0.75,1,40,75
47,0,1,0.762492732,0,1,0,0.75,1,34,67
48,1,1,0.8074443,1,1,93,0.75,1,93,11
49,1,1,0.775284561,1,1,84,0.75,1,84,84
50,1,1,1.603050166,1,1,63,0.75,1,63,46
51,1,0,0.957953557,0,1,0,0.75,1,87,66
52,0,1,1.036456729,0,1,0,0.75,1,22,91
53,1,1,0.772357867,1,1,7,0.75,1,7,12
54,1,1,1.085416858,1,1,68,0.75,1,68,61
55,1,0,0.636867545,0,1,0,0.75,1,54,2
56,1,1,1.124153821,1,1,52,0.75,1,52,10
57,0,1,0.761984737,0,1,0,0.75,1,26,91
58,1,0,0.684708535,0,1,0,0.75,1,86,55
59,1,1,0.546826752,1,1,83,0.75,1,83,65
60,0,1,2.024411506,0,1,0,0.75,1,2,24
61,1,1,0.641185603,1,1,48,0.75,1,48,63
62,1,0,0.854560265,0,1,0,0.75,1,95,8
63,1,1,0.979515661,1,1,46,0.75,1,46,65
64,1,1,0.920405992,1,1,85,0.75,1,85,18
65,1,0,1.32840381,0,1,0,0.75,1,54,62
66,1,1,0.715140112,1,1,44,0.75,1,44,98
67,0,0,1.62518579,1,1,67,0.75,1,3,67
68,1,0,0.663214816,0,1,0,0.75,1,51,34
69,1,1,0.584141427,1,1,88,0.75,1,88,46
70,1,1,0.699583889,1,1,91,0.75,1,91,3
71,1,0,1.042601657,0,1,0,0.75,1,29,53
72,0,1,1.062799466,0,1,0,0.75,1,14,99
73,1,1,1.484469269,1,1,1,0.75,1,1,73
74,1,1,1.194019801,1,1,32,0.75,1,32,40
75,1,1,2.685474252,1,1,54,0.75,1,54,60
76,1,1,3.436264046,1,1,83,0.75,1,83,58
77,1,0,1.293249013,0,1,0,0.75,1,68,51
78,1,1,0.892222063,1,1,92,0.75,1,92,15
79,1,0,1.302159814,0,1,0,0.75,1,76,30
80,1,1,0.473700588,1,1,17,0.75,1,17,51
81,1,0,0.663428076,0,1,0,0.75,1,97,15
82,0,0,1.41564431,1,1,41,0.75,1,35,41
83,1,1,1.461104441,1,1,60,0.75,1,60,60
84,0,1,1.288136189,0,1,0,0.75,1,74,81
85,1,1,0.565915312,1,1,88,0.75,1,88,48
86,0,1,2.674717337,0,1,0,0.75,1,34,68
87,1,1,0.446772679,1,1,47,0.75,1,47,76
88,1,1,0.447856421,1,1,17,0.75,1,17,19
89,1,1,1.357051473,1,1,47,0.75,1,47,62
90,1,1,0.342599146,1,1,46,0.75,1,46,77
91,1,1,0.356150261,1,1,13,0.75,1,13,43
92,1,0,0.263645439,0,1,0,0.75,1,64,44
93,1,0,0.485925363,0,1,0,0.75,1,90,49
94,1,1,0.434715306,1,1,43,0.75,1,43,22
95,1,0,0.318159624,0,1,0,0.75,1,18,84
96,1,0,0.478780162,0,1,0,0.75,1,30,51
97,1,1,0.397289704,1,1,6,0.75,1,6,11
98,1,1,0.597483402,1,1,7,0.75,1,7,37
99,1,1,0.401927144,1,1,3,0.75,1,3,83
100,1,0,1.722398764,0,0,0,0.2,1,56,13
101,0,0,1.043216815,1,0,65,0.2,1,57,65
102,0,0,1.270602007,1,0,74,0.2,1,31,74
103,1,0,0.300316303,0,0,0,0.2,1,76,72
104,1,0,0.460143139,0,0,0,0.2,1,68,11
105,1,0,0.328394669,0,0,0,0.2,1,94,96
106,1,1,0.347892082,1,0,49,0.2,1,49,43
107,1,0,0.640066837,0,0,0,0.2,1,52,57
108,1,0,0.702311475,0,0,0,0.2,1,79,10
109,1,0,0.342425971,0,0,0,0.2,1,58,49
110,1,1,0.586482674,1,0,77,0.2,1,77,16
111,1,0,0.468328716,0,0,0,0.2,1,93,31
112,1,1,1.056075244,1,0,22,0.2,1,22,14
113,1,0,0.927312195,0,0,0,0.2,1,61,35
114,1,0,3.429835929,0,0,0,0.2,1,47,67
115,1,1,4.340298387,1,0,62,0.2,1,62,52
116,1,1,3.672333895,1,0,21,0.2,1,21,80
117,1,0,0.591024258,0,0,0,0.2,1,68,58
118,1,0,0.893664911,0,0,0,0.2,1,2,7
119,1,1,1.665527085,1,0,23,0.2,1,23,25
120,1,1,2.037768812,1,0,92,0.2,1,92,91
121,1,0,0.575692849,0,0,0,0.2,1,77,89
122,1,0,0.682775871,0,0,0,0.2,1,54,99
123,0,0,0.963762028,1,0,33,0.2,1,7,33
124,1,0,1.212538271,0,0,0,0.2,1,20,99
125,1,0,1.926755344,0,0,0,0.8,1,2,62
126,1,1,0.59276647,1,0,97,0.8,1,97,66
127,1,0,0.595804751,0,0,0,0.8,1,84,61
128,1,1,0.646553455,1,0,45,0.8,1,45,80
129,1,1,0.725908095,1,0,100,0.8,1,100,62
130,1,1,0.936882025,1,0,80,0.8,1,80,38
131,1,1,0.631044656,1,0,49,0.8,1,49,18
132,1,1,0.709275158,1,0,14,0.8,1,14,6
133,1,1,0.617011345,1,0,22,0.8,1,22,16
134,1,0,0.318460567,0,0,0,0.8,1,84,39
135,1,1,0.297201235,1,0,33,0.8,1,33,2
136,1,1,0.603297959,1,0,74,0.8,1,74,97
137,1,0,0.569120099,0,0,0,0.8,1,16,32
138,1,0,0.397379039,0,0,0,0.8,1,74,96
139,1,0,0.440254136,0,0,0,0.8,1,6,3
140,1,1,0.577292823,1,0,72,0.8,1,72,40
141,0,1,1.225396095,0,0,0,0.8,1,13,28
142,1,1,0.484608212,1,0,99,0.8,1,99,37
143,1,1,0.33883461,1,0,60,0.8,1,60,79
144,1,1,0.318607677,1,0,27,0.8,1,27,45
145,1,1,0.332854524,1,0,44,0.8,1,44,6
146,1,0,0.315835947,0,0,0,0.8,1,94,5
147,1,1,0.395973063,1,0,51,0.8,1,51,54
148,1,1,0.358526097,1,0,7,0.8,1,7,77
149,1,1,0.318259725,1,0,66,0.8,1,66,62
150,1,1,1.702706684,1,0,45,0.2,1,45,94
151,1,0,0.389207597,0,0,0,0.2,1,15,79
152,1,0,0.663842129,0,0,0,0.2,1,78,76
153,1,0,0.615304416,0,0,0,0.2,1,54,33
154,1,0,0.698619126,0,0,0,0.2,1,9,53
155,1,0,0.432326159,0,0,0,0.2,1,91,65
156,1,0,0.354177231,0,0,0,0.2,1,87,52
157,1,1,0.462805496,1,0,6,0.2,1,6,67
158,1,0,0.36092158,0,0,0,0.2,1,65,24
159,1,0,0.31483072,0,0,0,0.2,1,89,99
160,1,0,0.394591158,0,0,0,0.2,1,35,9
161,1,1,0.327664826,1,0,67,0.2,1,67,42
162,1,0,0.327490192,0,0,0,0.2,1,46,99
163,1,0,0.284281182,0,0,0,0.2,1,45,49
164,1,0,0.580634729,0,0,0,0.2,1,2,62
165,1,0,0.482827778,0,0,0,0.2,1,87,2
166,1,0,0.392674583,0,0,0,0.2,1,94,77
167,1,0,0.489495233,0,0,0,0.2,1,48,75
168,1,0,0.407132003,0,0,0,0.2,1,57,22
169,1,1,1.008176735,1,0,100,0.2,1,100,40
170,1,1,1.045618632,1,0,41,0.2,1,41,27
171,1,0,0.653889542,0,0,0,0.2,1,22,8
172,1,1,0.45724763,1,0,87,0.2,1,87,23
173,1,1,0.610283867,1,0,69,0.2,1,69,49
174,1,1,0.740001652,1,0,18,0.8,1,18,52
175,0,1,1.956592455,0,0,0,0.8,1,1,84
176,1,1,0.428590642,1,0,17,0.8,1,17,42
177,1,1,0.422312333,1,0,21,0.8,1,21,41
178,1,0,0.315363814,0,0,0,0.8,1,91,96
179,1,1,0.443372677,1,0,71,0.8,1,71,34
180,1,1,0.373513197,1,0,14,0.8,1,14,14
181,1,1,0.552209979,1,0,43,0.8,1,43,70
182,1,1,0.449525805,1,0,67,0.8,1,67,93
183,1,0,0.413534779,0,0,0,0.8,1,33,49
184,1,0,0.484196599,0,0,0,0.8,1,60,51
185,1,1,0.311248571,1,0,22,0.8,1,22,1
186,1,1,0.374901336,1,0,19,0.8,1,19,19
187,1,0,0.609753062,0,0,0,0.8,1,21,78
188,1,1,0.429605494,1,0,72,0.8,1,72,62
189,1,0,0.50983553,0,0,0,0.8,1,26,80
190,1,1,0.966093396,1,0,28,0.8,1,28,84
191,1,1,0.529828513,1,0,49,0.8,1,49,69
192,1,1,0.729073987,1,0,23,0.8,1,23,9
193,1,1,0.511500869,1,0,36,0.8,1,36,81
194,1,1,1.006189322,1,0,64,0.8,1,64,14
195,1,0,3.688654185,0,0,0,0.8,1,75,57
196,1,0,3.428738437,0,0,0,0.8,1,50,58
197,1,1,0.611997864,1,0,62,0.8,1,62,2
198,1,1,1.126311934,1,0,32,0.8,1,32,94
199,1,0,2.699631219,0,0,0,0.8,1,31,62
0,1,1,1.147536307,1,1,27,0.75,3,27,15
1,1,1,0.688272753,1,1,78,0.75,3,78,85
2,1,1,0.816228834,1,1,64,0.75,3,64,29
3,0,1,0.762924893,0,1,0,0.75,3,73,91
4,1,1,0.736285148,1,1,90,0.75,3,90,12
5,1,0,0.734910795,0,1,0,0.75,3,77,62
6,0,1,0.949540755,0,1,0,0.75,3,21,29
7,0,1,0.690868719,0,1,0,0.75,3,5,51
8,0,0,0.770197523,1,1,54,0.75,3,16,54
9,1,1,0.751536752,1,1,72,0.75,3,72,6
10,0,1,0.516845708,0,1,0,0.75,3,13,44
11,1,1,0.748328017,1,1,23,0.75,3,23,22
12,0,0,0.73827076,1,1,92,0.75,3,46,92
13,0,1,0.640840224,0,1,0,0.75,3,47,70
14,0,1,0.491653667,0,1,0,0.75,3,9,12
15,0,1,0.492204253,0,1,0,0.75,3,51,36
16,0,1,0.676956453,0,1,0,0.75,3,8,31
17,0,1,0.510282441,0,1,0,0.75,3,17,31
18,1,1,0.502202647,1,1,75,0.75,3,75,57
19,0,1,0.518308505,0,1,0,0.75,3,34,80
20,0,1,0.469588256,0,1,0,0.75,3,31,47
21,0,1,0.582203987,0,1,0,0.75,3,82,80
22,1,1,0.570838183,1,1,99,0.75,3,99,42
23,1,1,0.824327947,1,1,97,0.75,3,97,74
24,1,1,0.883499073,1,1,58,0.75,3,58,36
25,0,1,0.885589731,0,1,0,0.75,3,24,95
26,0,1,0.54216151,0,1,0,0.75,3,30,76
27,1,1,0.732898016,1,1,68,0.75,3,68,2
28,0,1,0.70763202,0,1,0,0.75,3,58,76
29,0,0,0.483587758,1,1,92,0.75,3,20,92
30,1,1,0.659541444,1,1,96,0.75,3,96,35
31,1,1,0.493535742,1,1,34,0.75,3,34,8
32,0,1,0.510221466,0,1,0,0.75,3,15,86
33,0,1,0.358572062,0,1,0,0.75,3,33,10
34,0,0,0.604172503,1,1,55,0.75,3,12,55
35,0,1,0.728259085,0,1,0,0.75,3,78,92
36,1,0,0.526930433,0,1,0,0.75,3,80,53
37,1,1,0.397577964,1,1,59,0.75,3,59,6
38,0,1,0.417550603,0,1,0,0.75,3,8,45
39,0,1,0.452915512,0,1,0,0.75,3,20,70
40,0,0,0.510872571,1,1,27,0.75,3,78,27
41,0,1,0.622937414,0,1,0,0.75,3,36,90
42,1,0,0.722256667,0,1,0,0.75,3,84,46
43,1,1,0.488873266,1,1,14,0.75,3,14,24
44,1,0,0.73761543,0,1,0,0.75,3,70,20
45,0,1,0.600276138,0,1,0,0.75,3,20,85
46,0,0,0.764234045,1,1,75,0.75,3,40,75
47,0,1,0.537589893,0,1,0,0.75,3,34,67
48,1,1,0.560210418,1,1,93,0.75,3,93,11
49,0,1,1.094175618,0,1,0,0.75,3,84,84
50,0,1,0.786903773,0,1,0,0.75,3,63,46
51,0,0,0.774926709,1,1,66,0.75,3,87,66
52,0,1,0.452241768,0,1,0,0.75,3,22,91
53,1,1,0.734193584,1,1,7,0.75,3,7,12
54,1,1,0.484902343,1,1,68,0.75,3,68,61
55,1,0,0.437654852,0,1,0,0.75,3,54,2
56,0,1,0.608178743,0,1,0,0.75,3,52,10
57,0,1,0.524187161,0,1,0,0.75,3,26,91
58,1,0,0.611535387,0,1,0,0.75,3,86,55
59,1,1,0.742954367,1,1,83,0.75,3,83,65
60,0,1,0.493590076,0,1,0,0.75,3,2,24
61,0,1,0.846204094,0,1,0,0.75,3,48,63
62,1,0,0.520265441,0,1,0,0.75,3,95,8
63,0,1,0.575012255,0,1,0,0.75,3,46,65
64,1,1,0.588232062,1,1,85,0.75,3,85,18
65,0,0,0.408881585,1,1,62,0.75,3,54,62
66,0,1,0.70091058,0,1,0,0.75,3,44,98
67,0,0,0.492942594,1,1,67,0.75,3,3,67
68,0,0,0.509567343,1,1,34,0.75,3,51,34
69,1,1,0.741603559,1,1,88,0.75,3,88,46
70,1,1,0.70019186,1,1,91,0.75,3,91,3
71,0,0,0.556237081,1,1,53,0.75,3,29,53
72,0,1,0.570233866,0,1,0,0.75,3,14,99
73,0,1,0.439590658,0,1,0,0.75,3,1,73
74,0,1,0.770278119,0,1,0,0.75,3,32,40
75,1,1,0.707005366,1,1,54,0.75,3,54,60
76,0,1,0.498911807,0,1,0,0.75,3,83,58
77,1,0,0.52297249,0,1,0,0.75,3,68,51
78,1,1,0.53820236,1,1,92,0.75,3,92,15
79,1,0,0.664863778,0,1,0,0.75,3,76,30
80,0,1,0.450259778,0,1,0,0.75,3,17,51
81,0,0,0.308298157,1,1,15,0.75,3,97,15
82,0,0,0.76423978,1,1,41,0.75,3,35,41
83,1,1,0.577632068,1,1,60,0.75,3,60,60
84,0,1,0.622240428,0,1,0,0.75,3,74,81
85,1,1,0.577597053,1,1,88,0.75,3,88,48
86,0,1,0.702717796,0,1,0,0.75,3,34,68
87,0,1,0.502918651,0,1,0,0.75,3,47,76
88,1,1,0.574921397,1,1,17,0.75,3,17,19
89,0,1,0.852193229,0,1,0,0.75,3,47,62
90,1,1,0.286248442,1,1,46,0.75,3,46,77
91,0,1,0.630957139,0,1,0,0.75,3,13,43
92,1,0,0.473534728,0,1,0,0.75,3,64,44
93,1,0,0.586186381,0,1,0,0.75,3,90,49
94,1,1,0.5748894,1,1,43,0.75,3,43,22
95,1,0,0.41223823,0,1,0,0.75,3,18,84
96,0,0,0.647618714,1,1,51,0.75,3,30,51
97,1,1,0.769538872,1,1,6,0.75,3,6,11
98,0,1,0.478875778,0,1,0,0.75,3,7,37
99,0,1,0.487583433,0,1,0,0.75,3,3,83
100,1,0,0.810876012,0,0,0,0.2,3,56,13
101,0,0,0.622840518,1,0,65,0.2,3,57,65
102,0,0,0.554257204,1,0,74,0.2,3,31,74
103,0,0,0.464215813,1,0,72,0.2,3,76,72
104,1,0,0.68149064,0,0,0,0.2,3,68,11
105,0,0,0.68220604,1,0,96,0.2,3,94,96
106,1,1,0.818842006,1,0,49,0.2,3,49,43
107,0,0,0.502212307,1,0,57,0.2,3,52,57
108,1,0,0.526217448,0,0,0,0.2,3,79,10
109,1,0,0.693608067,0,0,0,0.2,3,58,49
110,1,1,0.574208411,1,0,77,0.2,3,77,16
111,1,0,0.499652563,0,0,0,0.2,3,93,31
112,0,1,0.443523245,0,0,0,0.2,3,22,14
113,1,0,0.478240973,0,0,0,0.2,3,61,35
114,0,0,0.542959921,1,0,67,0.2,3,47,67
115,1,1,0.893570516,1,0,62,0.2,3,62,52
116,0,1,0.534215137,0,0,0,0.2,3,21,80
117,1,0,0.524917955,0,0,0,0.2,3,68,58
118,1,0,0.412246984,0,0,0,0.2,3,2,7
119,0,1,0.391587017,0,0,0,0.2,3,23,25
120,1,1,0.652222328,1,0,92,0.2,3,92,91
121,0,0,0.494269555,1,0,89,0.2,3,77,89
122,0,0,0.550921689,1,0,99,0.2,3,54,99
123,0,0,0.476968648,1,0,33,0.2,3,7,33
124,0,0,0.798203169,1,0,99,0.2,3,20,99
125,0,0,0.61420078,1,0,62,0.8,3,2,62
126,1,1,0.849531458,1,0,97,0.8,3,97,66
127,1,0,0.755530314,0,0,0,0.8,3,84,61
128,0,1,0.552920885,0,0,0,0.8,3,45,80
129,1,1,0.550850149,1,0,100,0.8,3,100,62
130,0,1,0.516872573,0,0,0,0.8,3,80,38
131,0,1,0.508255474,0,0,0,0.8,3,49,18
132,1,1,0.588272209,1,0,14,0.8,3,14,6
133,0,1,0.768895616,0,0,0,0.8,3,22,16
134,0,0,0.54216966,1,0,39,0.8,3,84,39
135,1,1,0.972844986,1,0,33,0.8,3,33,2
136,0,1,1.026212618,0,0,0,0.8,3,74,97
137,0,0,1.101524013,1,0,32,0.8,3,16,32
138,0,0,0.533641006,1,0,96,0.8,3,74,96
139,1,0,0.57222461,0,0,0,0.8,3,6,3
140,0,1,0.505536954,0,0,0,0.8,3,72,40
141,1,1,0.641611165,1,0,13,0.8,3,13,28
142,1,1,0.63630815,1,0,99,0.8,3,99,37
143,0,1,0.966923466,0,0,0,0.8,3,60,79
144,0,1,0.884197569,0,0,0,0.8,3,27,45
145,1,1,0.524912522,1,0,44,0.8,3,44,6
146,1,0,0.676184002,0,0,0,0.8,3,94,5
147,0,1,0.549565447,0,0,0,0.8,3,51,54
148,0,1,0.515505465,0,0,0,0.8,3,7,77
149,1,1,0.706926279,1,0,66,0.8,3,66,62
150,0,1,0.798846123,0,0,0,0.2,3,45,94
151,0,0,0.634876142,1,0,79,0.2,3,15,79
152,1,0,0.757499324,0,0,0,0.2,3,78,76
153,0,0,0.579608021,1,0,33,0.2,3,54,33
154,0,0,0.664172829,1,0,53,0.2,3,9,53
155,0,0,0.809587084,1,0,65,0.2,3,91,65
156,1,0,0.781579024,0,0,0,0.2,3,87,52
157,0,1,0.42620483,0,0,0,0.2,3,6,67
158,0,0,0.492911503,1,0,24,0.2,3,65,24
159,1,0,0.637541837,0,0,0,0.2,3,89,99
160,1,0,0.712271857,0,0,0,0.2,3,35,9
161,0,1,0.631545759,0,0,0,0.2,3,67,42
162,0,0,0.602188098,1,0,99,0.2,3,46,99
163,0,0,0.646217496,1,0,49,0.2,3,45,49
164,0,0,0.456349432,1,0,62,0.2,3,2,62
165,1,0,0.618257431,0,0,0,0.2,3,87,2
166,1,0,0.9735302,0,0,0,0.2,3,94,77
167,1,0,0.850865362,0,0,0,0.2,3,48,75
168,1,0,0.684901921,0,0,0,0.2,3,57,22
169,1,1,0.749613925,1,0,100,0.2,3,100,40
170,0,1,0.747541378,0,0,0,0.2,3,41,27
171,1,0,0.537654188,0,0,0,0.2,3,22,8
172,1,1,0.752291695,1,0,87,0.2,3,87,23
173,1,1,0.846255711,1,0,69,0.2,3,69,49
174,0,1,0.528213625,0,0,0,0.8,3,18,52
175,0,1,0.555552772,0,0,0,0.8,3,1,84
176,0,1,0.82495128,0,0,0,0.8,3,17,42
177,0,1,0.652275153,0,0,0,0.8,3,21,41
178,0,0,0.485594802,1,0,96,0.8,3,91,96
179,1,1,0.72619348,1,0,71,0.8,3,71,34
180,0,1,0.965526474,0,0,0,0.8,3,14,14
181,0,1,0.938881296,0,0,0,0.8,3,43,70
182,0,1,0.809586783,0,0,0,0.8,3,67,93
183,1,0,0.469578898,0,0,0,0.8,3,33,49
184,1,0,0.654913983,0,0,0,0.8,3,60,51
185,1,1,0.832857507,1,0,22,0.8,3,22,1
186,1,1,0.779635369,1,0,19,0.8,3,19,19
187,0,0,0.455522345,1,0,78,0.8,3,21,78
188,0,1,0.392921826,0,0,0,0.8,3,72,62
189,0,0,0.56487712,1,0,80,0.8,3,26,80
190,0,1,0.386162655,0,0,0,0.8,3,28,84
191,1,1,0.582865959,1,0,49,0.8,3,49,69
192,1,1,0.979513299,1,0,23,0.8,3,23,9
193,0,1,0.456203333,0,0,0,0.8,3,36,81
194,1,1,0.610182164,1,0,64,0.8,3,64,14
195,1,0,0.806239495,0,0,0,0.8,3,75,57
196,0,0,0.482322074,1,0,58,0.8,3,50,58
197,1,1,0.586868275,1,0,62,0.8,3,62,2
198,0,1,0.631619412,0,0,0,0.8,3,32,94
199,0,0,0.610209331,1,0,62,0.8,3,31,62
0,0,1,3.479498655,0,1,0,0.75,2,27,15
1,1,1,0.985245684,1,1,78,0.75,2,78,85
2,1,1,0.621811998,1,1,64,0.75,2,64,29
3,0,1,0.74508358,0,1,0,0.75,2,73,91
4,0,1,0.822167031,0,1,0,0.75,2,90,12
5,0,0,0.000297018,1,1,62,0.75,2,77,62
6,0,1,2.069600043,0,1,0,0.75,2,21,29
7,0,1,3.230898097,0,1,0,0.75,2,5,51
8,0,0,3.145828359,1,1,54,0.75,2,16,54
9,0,1,9.767438421,0,1,0,0.75,2,72,6
10,1,1,1.676966213,1,1,13,0.75,2,13,44
11,1,1,0.66180229,1,1,23,0.75,2,23,22
12,1,0,0.551090591,0,1,0,0.75,2,46,92
13,1,1,0.892999518,1,1,47,0.75,2,47,70
14,1,1,1.300987133,1,1,9,0.75,2,9,12
15,1,1,0.605044962,1,1,51,0.75,2,51,36
16,1,1,0.536997624,1,1,8,0.75,2,8,31
17,0,1,0.407713839,0,1,0,0.75,2,17,31
18,0,1,0.467703654,0,1,0,0.75,2,75,57
19,1,1,0.317059013,1,1,34,0.75,2,34,80
20,1,1,0.308412586,1,1,31,0.75,2,31,47
21,1,1,0.427721814,1,1,82,0.75,2,82,80
22,1,1,0.614522376,1,1,99,0.75,2,99,42
23,1,1,0.537799029,1,1,97,0.75,2,97,74
24,1,1,0.360520253,1,1,58,0.75,2,58,36
25,1,1,1.050366005,1,1,24,0.75,2,24,95
26,1,1,0.476491648,1,1,30,0.75,2,30,76
27,1,1,0.596959971,1,1,68,0.75,2,68,2
28,1,1,0.401068963,1,1,58,0.75,2,58,76
29,1,0,0.56502871,0,1,0,0.75,2,20,92
30,1,1,0.338320562,1,1,96,0.75,2,96,35
31,1,1,0.449127343,1,1,34,0.75,2,34,8
32,1,1,0.563026554,1,1,15,0.75,2,15,86
33,1,1,0.472357542,1,1,33,0.75,2,33,10
34,1,0,0.673660679,0,1,0,0.75,2,12,55
35,1,1,0.515089517,1,1,78,0.75,2,78,92
36,1,0,0.602331351,0,1,0,0.75,2,80,53
37,1,1,0.526454687,1,1,59,0.75,2,59,6
38,1,1,1.596934616,1,1,8,0.75,2,8,45
39,1,1,0.401114844,1,1,20,0.75,2,20,70
40,1,0,0.47699513,0,1,0,0.75,2,78,27
41,1,1,0.525656904,1,1,36,0.75,2,36,90
42,1,0,6.012106809,0,1,0,0.75,2,84,46
43,0,1,0.647689703,0,1,0,0.75,2,14,24
44,1,0,0.713738809,0,1,0,0.75,2,70,20
45,1,1,0.47315925,1,1,20,0.75,2,20,85
46,1,0,0.722389463,0,1,0,0.75,2,40,75
47,1,1,0.633725625,1,1,34,0.75,2,34,67
48,1,1,0.388417319,1,1,93,0.75,2,93,11
49,1,1,0.465043471,1,1,84,0.75,2,84,84
50,1,1,1.471011301,1,1,63,0.75,2,63,46
51,1,0,1.54434188,0,1,0,0.75,2,87,66
52,1,1,0.550352573,1,1,22,0.75,2,22,91
53,1,1,0.364495587,1,1,7,0.75,2,7,12
54,1,1,0.897664574,1,1,68,0.75,2,68,61
55,1,0,1.297668015,0,1,0,0.75,2,54,2
56,1,1,0.489725859,1,1,52,0.75,2,52,10
57,1,1,1.074242159,1,1,26,0.75,2,26,91
58,1,0,3.619578325,0,1,0,0.75,2,86,55
59,1,1,0.871071188,1,1,83,0.75,2,83,65
60,1,1,0.392357337,1,1,2,0.75,2,2,24
61,1,1,1.180308724,1,1,48,0.75,2,48,63
62,1,0,0.904979853,0,1,0,0.75,2,95,8
63,1,1,0.921003438,1,1,46,0.75,2,46,65
64,1,1,1.080337067,1,1,85,0.75,2,85,18
65,1,0,1.336976736,0,1,0,0.75,2,54,62
66,1,1,0.575711704,1,1,44,0.75,2,44,98
67,1,0,0.452391524,0,1,0,0.75,2,3,67
68,1,0,0.502402859,0,1,0,0.75,2,51,34
69,1,1,0.43037264,1,1,88,0.75,2,88,46
70,1,1,0.67300899,1,1,91,0.75,2,91,3
71,1,0,2.066217537,0,1,0,0.75,2,29,53
72,1,1,1.795574249,1,1,14,0.75,2,14,99
73,1,1,1.063586331,1,1,1,0.75,2,1,73
74,1,1,1.137021651,1,1,32,0.75,2,32,40
75,1,1,0.760348622,1,1,54,0.75,2,54,60
76,1,1,0.494447059,1,1,83,0.75,2,83,58
77,1,0,1.006396756,0,1,0,0.75,2,68,51
78,1,1,0.450550857,1,1,92,0.75,2,92,15
79,1,0,1.044351992,0,1,0,0.75,2,76,30
80,1,1,2.974225527,1,1,17,0.75,2,17,51
81,1,0,1.147758373,0,1,0,0.75,2,97,15
82,1,0,0.905663236,0,1,0,0.75,2,35,41
83,1,1,0.593695186,1,1,60,0.75,2,60,60
84,1,1,0.365674906,1,1,74,0.75,2,74,81
85,1,1,0.779107551,1,1,88,0.75,2,88,48
86,1,1,0.655735152,1,1,34,0.75,2,34,68
87,1,1,0.61768906,1,1,47,0.75,2,47,76
88,1,1,0.557117584,1,1,17,0.75,2,17,19
89,1,1,0.539099389,1,1,47,0.75,2,47,62
90,1,1,0.35382346,1,1,46,0.75,2,46,77
91,1,1,0.359716734,1,1,13,0.75,2,13,43
92,1,0,0.445011348,0,1,0,0.75,2,64,44
93,1,0,0.639122963,0,1,0,0.75,2,90,49
94,1,1,1.05762997,1,1,43,0.75,2,43,22
95,1,0,0.515696231,0,1,0,0.75,2,18,84
96,1,0,2.434909713,0,1,0,0.75,2,30,51
97,1,1,0.973623039,1,1,6,0.75,2,6,11
98,1,1,0.52300336,1,1,7,0.75,2,7,37
99,1,1,0.554352659,1,1,3,0.75,2,3,83
100,1,0,0.666416334,0,0,0,0.2,2,56,13
101,1,0,0.46765234,0,0,0,0.2,2,57,65
102,1,0,0.38100575,0,0,0,0.2,2,31,74
103,1,0,0.393722292,0,0,0,0.2,2,76,72
104,0,0,0.405702326,1,0,11,0.2,2,68,11
105,0,0,0.353660764,1,0,96,0.2,2,94,96
106,0,1,0.423607026,0,0,0,0.2,2,49,43
107,0,0,0.33917147,1,0,57,0.2,2,52,57
108,0,0,0.67372618,1,0,10,0.2,2,79,10
109,0,0,0.627040905,1,0,49,0.2,2,58,49
110,0,1,0.693813843,0,0,0,0.2,2,77,16
111,0,0,0.877764057,1,0,31,0.2,2,93,31
112,0,1,1.142262934,0,0,0,0.2,2,22,14
113,0,0,0.612333376,1,0,35,0.2,2,61,35
114,0,0,0.399663561,1,0,67,0.2,2,47,67
115,0,1,0.803640223,0,0,0,0.2,2,62,52
116,0,1,0.439675888,0,0,0,0.2,2,21,80
117,0,0,0.378382392,1,0,58,0.2,2,68,58
118,0,0,0.759001476,1,0,7,0.2,2,2,7
119,0,1,0.396376439,0,0,0,0.2,2,23,25
120,1,1,1.152366078,1,0,92,0.2,2,92,91
121,1,0,0.878336662,0,0,0,0.2,2,77,89
122,0,0,0.575021378,1,0,99,0.2,2,54,99
123,1,0,0.58032605,0,0,0,0.2,2,7,33
124,0,0,0.968920553,1,0,99,0.2,2,20,99
125,0,0,1.918350197,1,0,62,0.8,2,2,62
126,1,1,1.053637129,1,0,97,0.8,2,97,66
127,1,0,0.863653885,0,0,0,0.8,2,84,61
128,0,1,0.705070951,0,0,0,0.8,2,45,80
129,1,1,0.409017217,1,0,100,0.8,2,100,62
130,0,1,0.996357,0,0,0,0.8,2,80,38
131,0,1,0.416281182,0,0,0,0.8,2,49,18
132,0,1,1.899665824,0,0,0,0.8,2,14,6
133,1,1,0.515727624,1,0,22,0.8,2,22,16
134,1,0,0.403134205,0,0,0,0.8,2,84,39
135,1,1,0.479028678,1,0,33,0.8,2,33,2
136,1,1,1.127603097,1,0,74,0.8,2,74,97
137,1,0,1.590365203,0,0,0,0.8,2,16,32
138,1,0,1.05894331,0,0,0,0.8,2,74,96
139,1,0,0.660318105,0,0,0,0.8,2,6,3
140,1,1,0.637566938,1,0,72,0.8,2,72,40
141,1,1,0.664474548,1,0,13,0.8,2,13,28
142,1,1,0.60964331,1,0,99,0.8,2,99,37
143,1,1,0.564960493,1,0,60,0.8,2,60,79
144,0,1,0.578405695,0,0,0,0.8,2,27,45
145,1,1,0.431022216,1,0,44,0.8,2,44,6
146,1,0,0.689571675,0,0,0,0.8,2,94,5
147,0,1,0.426361688,0,0,0,0.8,2,51,54
148,0,1,0.4934736,0,0,0,0.8,2,7,77
149,1,1,0.317006794,1,0,66,0.8,2,66,62
150,1,1,0.774309078,1,0,45,0.2,2,45,94
151,0,0,0.731678524,1,0,79,0.2,2,15,79
152,1,0,0.40243905,0,0,0,0.2,2,78,76
153,0,0,0.758279456,1,0,33,0.2,2,54,33
154,0,0,0.947635763,1,0,53,0.2,2,9,53
155,0,0,0.457748114,1,0,65,0.2,2,91,65
156,0,0,4.539460701,1,0,52,0.2,2,87,52
157,0,1,0.370330001,0,0,0,0.2,2,6,67
158,0,0,0.439686453,1,0,24,0.2,2,65,24
159,1,0,1.602271887,0,0,0,0.2,2,89,99
160,0,0,1.574215143,1,0,9,0.2,2,35,9
161,0,1,3.987443739,0,0,0,0.2,2,67,42
162,0,0,0.880437522,1,0,99,0.2,2,46,99
163,0,0,1.584893911,1,0,49,0.2,2,45,49
164,1,0,0.429699218,0,0,0,0.2,2,2,62
165,1,0,0.976354459,0,0,0,0.2,2,87,2
166,0,0,1.412941539,1,0,77,0.2,2,94,77
167,0,0,0.688284295,1,0,75,0.2,2,48,75
168,1,0,0.688922703,0,0,0,0.2,2,57,22
169,1,1,0.617676382,1,0,100,0.2,2,100,40
170,1,1,0.636920984,1,0,41,0.2,2,41,27
171,0,0,0.359759295,1,0,8,0.2,2,22,8
172,1,1,0.412985609,1,0,87,0.2,2,87,23
173,0,1,0.624274471,0,0,0,0.2,2,69,49
174,0,1,0.49976803,0,0,0,0.8,2,18,52
175,0,1,0.607017838,0,0,0,0.8,2,1,84
176,0,1,0.547071489,0,0,0,0.8,2,17,42
177,0,1,0.433048218,0,0,0,0.8,2,21,41
178,0,0,0.387647305,1,0,96,0.8,2,91,96
179,1,1,0.816377592,1,0,71,0.8,2,71,34
180,0,1,0.523744095,0,0,0,0.8,2,14,14
181,0,1,1.066947405,0,0,0,0.8,2,43,70
182,0,1,1.196327781,0,0,0,0.8,2,67,93
183,0,0,0.568344809,1,0,49,0.8,2,33,49
184,0,0,2.69368918,1,0,51,0.8,2,60,51
185,1,1,5.0613922,1,0,22,0.8,2,22,1
186,1,1,1.126947484,1,0,19,0.8,2,19,19
187,1,0,3.917479668,0,0,0,0.8,2,21,78
188,1,1,0.733023859,1,0,72,0.8,2,72,62
189,0,0,0.699741528,1,0,80,0.8,2,26,80
190,0,1,0.779590206,0,0,0,0.8,2,28,84
191,0,1,1.144271429,0,0,0,0.8,2,49,69
192,1,1,1.302422117,1,0,23,0.8,2,23,9
193,1,1,0.24639707,1,0,36,0.8,2,36,81
194,1,1,3.272327901,1,0,64,0.8,2,64,14
195,0,0,0.465672219,1,0,57,0.8,2,75,57
196,0,0,0.483089134,1,0,58,0.8,2,50,58
197,1,1,0.907763795,1,0,62,0.8,2,62,2
198,1,1,1.107596028,1,0,32,0.8,2,32,94
199,0,0,0.795704043,1,0,62,0.8,2,31,62
0,1,1,4.788707571,1,1,27,0.75,6,27,15
1,1,1,6.13906536,1,1,78,0.75,6,78,85
2,0,1,1.482059265,0,1,0,0.75,6,64,29
3,1,1,6.292769539,1,1,73,0.75,6,73,91
4,1,1,1.48425275,1,1,90,0.75,6,90,12
5,1,0,0.769483929,0,1,0,0.75,6,77,62
6,0,1,2.221929149,0,1,0,0.75,6,21,29
7,1,1,1.961041834,1,1,5,0.75,6,5,51
8,0,0,1.862620664,1,1,54,0.75,6,16,54
9,1,1,0.993238227,1,1,72,0.75,6,72,6
10,0,1,1.907165461,0,1,0,0.75,6,13,44
11,1,1,1.562872684,1,1,23,0.75,6,23,22
12,0,0,2.797800243,1,1,92,0.75,6,46,92
13,0,1,1.60785595,0,1,0,0.75,6,47,70
14,1,1,1.599307801,1,1,9,0.75,6,9,12
15,1,1,1.036712224,1,1,51,0.75,6,51,36
16,0,1,2.916108745,0,1,0,0.75,6,8,31
17,1,1,1.559217826,1,1,17,0.75,6,17,31
18,1,1,0.951075646,1,1,75,0.75,6,75,57
19,1,1,0.929518825,1,1,34,0.75,6,34,80
20,1,1,1.254119841,1,1,31,0.75,6,31,47
21,1,1,1.158920762,1,1,82,0.75,6,82,80
22,1,1,1.000050176,1,1,99,0.75,6,99,42
23,1,1,0.713338237,1,1,97,0.75,6,97,74
24,1,1,0.54654556,1,1,58,0.75,6,58,36
25,1,1,1.221721033,1,1,24,0.75,6,24,95
26,1,1,1.571688818,1,1,30,0.75,6,30,76
27,1,1,0.901517251,1,1,68,0.75,6,68,2
28,1,1,0.652046093,1,1,58,0.75,6,58,76
29,0,0,1.177838787,1,1,92,0.75,6,20,92
30,1,1,0.860880473,1,1,96,0.75,6,96,35
31,1,1,0.751305999,1,1,34,0.75,6,34,8
32,0,1,2.081895623,0,1,0,0.75,6,15,86
33,1,1,0.733993032,1,1,33,0.75,6,33,10
34,0,0,2.738029912,1,1,55,0.75,6,12,55
35,1,1,2.179446697,1,1,78,0.75,6,78,92
36,1,0,0.508220865,0,1,0,0.75,6,80,53
37,1,1,0.701055975,1,1,59,0.75,6,59,6
38,0,1,1.889456219,0,1,0,0.75,6,8,45
39,1,1,1.536883848,1,1,20,0.75,6,20,70
40,1,0,0.974252921,0,1,0,0.75,6,78,27
41,1,1,1.462536848,1,1,36,0.75,6,36,90
42,1,0,0.905001625,0,1,0,0.75,6,84,46
43,0,1,1.222994817,0,1,0,0.75,6,14,24
44,1,0,0.752944698,0,1,0,0.75,6,70,20
45,1,1,0.91262095,1,1,20,0.75,6,20,85
46,1,0,0.785079512,0,1,0,0.75,6,40,75
47,1,1,5.368646904,1,1,34,0.75,6,34,67
48,1,1,0.820359442,1,1,93,0.75,6,93,11
49,1,1,1.5032831,1,1,84,0.75,6,84,84
50,1,1,1.674292833,1,1,63,0.75,6,63,46
51,1,0,0.80539505,0,1,0,0.75,6,87,66
52,0,1,2.964266776,0,1,0,0.75,6,22,91
53,1,1,2.129413911,1,1,7,0.75,6,7,12
54,1,1,1.471090699,1,1,68,0.75,6,68,61
55,1,0,0.867887994,0,1,0,0.75,6,54,2
56,1,1,0.540846604,1,1,52,0.75,6,52,10
57,0,1,1.505126495,0,1,0,0.75,6,26,91
58,1,0,0.505273031,0,1,0,0.75,6,86,55
59,1,1,0.888890599,1,1,83,0.75,6,83,65
60,1,1,2.1135053,1,1,2,0.75,6,2,24
61,1,1,1.456979297,1,1,48,0.75,6,48,63
62,1,0,1.375054595,0,1,0,0.75,6,95,8
63,1,1,1.560192265,1,1,46,0.75,6,46,65
64,1,1,0.87093732,1,1,85,0.75,6,85,18
65,1,0,0.607571429,0,1,0,0.75,6,54,62
66,1,1,0.756021393,1,1,44,0.75,6,44,98
67,0,0,1.050770029,1,1,67,0.75,6,3,67
68,1,0,0.940056904,0,1,0,0.75,6,51,34
69,1,1,2.70523882,1,1,88,0.75,6,88,46
70,0,1,2.1729244,0,1,0,0.75,6,91,3
71,1,0,2.72477207,0,1,0,0.75,6,29,53
72,1,1,2.68718747,1,1,14,0.75,6,14,99
73,0,1,3.087237646,0,1,0,0.75,6,1,73
74,1,1,0.951003233,1,1,32,0.75,6,32,40
75,1,1,1.733246666,1,1,54,0.75,6,54,60
76,1,1,0.609804827,1,1,83,0.75,6,83,58
77,1,0,0.577319923,0,1,0,0.75,6,68,51
78,1,1,0.961055518,1,1,92,0.75,6,92,15
79,1,0,1.591898873,0,1,0,0.75,6,76,30
80,0,1,1.902856035,0,1,0,0.75,6,17,51
81,1,0,0.698884727,0,1,0,0.75,6,97,15
82,1,0,0.889609027,0,1,0,0.75,6,35,41
83,1,1,1.287458306,1,1,60,0.75,6,60,60
84,1,1,3.435965858,1,1,74,0.75,6,74,81
85,1,1,0.930647782,1,1,88,0.75,6,88,48
86,1,1,1.804558024,1,1,34,0.75,6,34,68
87,1,1,1.722012396,1,1,47,0.75,6,47,76
88,1,1,2.534119042,1,1,17,0.75,6,17,19
89,0,1,1.077057069,0,1,0,0.75,6,47,62
90,0,1,1.927956529,0,1,0,0.75,6,46,77
91,1,1,0.588204672,1,1,13,0.75,6,13,43
92,1,0,0.794160209,0,1,0,0.75,6,64,44
93,0,0,1.833569958,1,1,49,0.75,6,90,49
94,1,1,1.027217005,1,1,43,0.75,6,43,22
95,1,0,0.780959956,0,1,0,0.75,6,18,84
96,1,0,0.437182053,0,1,0,0.75,6,30,51
97,1,1,1.570997189,1,1,6,0.75,6,6,11
98,1,1,0.707470507,1,1,7,0.75,6,7,37
99,1,1,0.857446845,1,1,3,0.75,6,3,83
100,1,0,1.531353666,0,0,0,0.2,6,56,13
101,1,0,0.697515153,0,0,0,0.2,6,57,65
102,0,0,0.482529093,1,0,74,0.2,6,31,74
103,0,0,0.436760119,1,0,72,0.2,6,76,72
104,0,0,0.337018411,1,0,11,0.2,6,68,11
105,0,0,0.395589082,1,0,96,0.2,6,94,96
106,0,1,0.463674929,0,0,0,0.2,6,49,43
107,0,0,0.362020264,1,0,57,0.2,6,52,57
108,0,0,0.366555481,1,0,10,0.2,6,79,10
109,0,0,0.468382911,1,0,49,0.2,6,58,49
110,0,1,0.421491821,0,0,0,0.2,6,77,16
111,0,0,0.569243883,1,0,31,0.2,6,93,31
112,0,1,0.453837601,0,0,0,0.2,6,22,14
113,1,0,3.11145379,0,0,0,0.2,6,61,35
114,0,0,1.034726285,1,0,67,0.2,6,47,67
115,0,1,0.56049104,0,0,0,0.2,6,62,52
116,0,1,0.484781877,0,0,0,0.2,6,21,80
117,1,0,2.489221874,0,0,0,0.2,6,68,58
118,0,0,1.07491319,1,0,7,0.2,6,2,7
119,1,1,1.932789381,1,0,23,0.2,6,23,25
120,1,1,0.89381468,1,0,92,0.2,6,92,91
121,1,0,3.225523568,0,0,0,0.2,6,77,89
122,0,0,0.616921252,1,0,99,0.2,6,54,99
123,0,0,0.610154918,1,0,33,0.2,6,7,33
124,0,0,0.414983208,1,0,99,0.2,6,20,99
125,0,0,0.757531232,1,0,62,0.8,6,2,62
126,0,1,0.401174002,0,0,0,0.8,6,97,66
127,0,0,0.749649054,1,0,61,0.8,6,84,61
128,0,1,0.620739752,0,0,0,0.8,6,45,80
129,1,1,1.232606923,1,0,100,0.8,6,100,62
130,1,1,2.073390808,1,0,80,0.8,6,80,38
131,1,1,1.812008576,1,0,49,0.8,6,49,18
132,0,1,0.788012521,0,0,0,0.8,6,14,6
133,1,1,1.694074682,1,0,22,0.8,6,22,16
134,0,0,1.839872165,1,0,39,0.8,6,84,39
135,1,1,1.800306187,1,0,33,0.8,6,33,2
136,0,1,1.500130571,0,0,0,0.8,6,74,97
137,0,0,0.582116853,1,0,32,0.8,6,16,32
138,0,0,0.806679667,1,0,96,0.8,6,74,96
139,0,0,1.260313713,1,0,3,0.8,6,6,3
140,0,1,0.603053318,0,0,0,0.8,6,72,40
141,0,1,0.470925346,0,0,0,0.8,6,13,28
142,1,1,1.720394793,1,0,99,0.8,6,99,37
143,0,1,1.458545583,0,0,0,0.8,6,60,79
144,1,1,1.765801703,1,0,27,0.8,6,27,45
145,1,1,0.891760319,1,0,44,0.8,6,44,6
146,1,0,0.698544899,0,0,0,0.8,6,94,5
147,0,1,2.118991578,0,0,0,0.8,6,51,54
148,0,1,0.513527537,0,0,0,0.8,6,7,77
149,0,1,1.301646682,0,0,0,0.8,6,66,62
150,0,1,1.00391201,0,0,0,0.2,6,45,94
151,0,0,0.741612357,1,0,79,0.2,6,15,79
152,0,0,1.290128462,1,0,76,0.2,6,78,76
153,1,0,1.140324319,0,0,0,0.2,6,54,33
154,0,0,0.605188644,1,0,53,0.2,6,9,53
155,0,0,0.785915397,1,0,65,0.2,6,91,65
156,0,0,0.883287434,1,0,52,0.2,6,87,52
157,0,1,0.528637895,0,0,0,0.2,6,6,67
158,1,0,0.880921754,0,0,0,0.2,6,65,24
159,0,0,0.429786809,1,0,99,0.2,6,89,99
160,0,0,0.427284857,1,0,9,0.2,6,35,9
161,0,1,0.934397861,0,0,0,0.2,6,67,42
162,0,0,0.865480121,1,0,99,0.2,6,46,99
163,0,0,0.697313309,1,0,49,0.2,6,45,49
164,0,0,0.64506252,1,0,62,0.2,6,2,62
165,0,0,0.454570283,1,0,2,0.2,6,87,2
166,0,0,0.438094912,1,0,77,0.2,6,94,77
167,0,0,0.383047958,1,0,75,0.2,6,48,75
168,0,0,0.467501411,1,0,22,0.2,6,57,22
169,0,1,0.426152478,0,0,0,0.2,6,100,40
170,1,1,1.280348152,1,0,41,0.2,6,41,27
171,1,0,2.109564781,0,0,0,0.2,6,22,8
172,1,1,0.772061146,1,0,87,0.2,6,87,23
173,1,1,1.332304157,1,0,69,0.2,6,69,49
174,0,1,2.09933802,0,0,0,0.8,6,18,52
175,0,1,1.895690004,0,0,0,0.8,6,1,84
176,0,1,0.486995319,0,0,0,0.8,6,17,42
177,0,1,0.917170991,0,0,0,0.8,6,21,41
178,1,0,0.500837595,0,0,0,0.8,6,91,96
179,0,1,1.136489283,0,0,0,0.8,6,71,34
180,0,1,0.68759857,0,0,0,0.8,6,14,14
181,1,1,0.417719505,1,0,43,0.8,6,43,70
182,1,1,0.349929583,1,0,67,0.8,6,67,93
183,1,0,0.365895782,0,0,0,0.8,6,33,49
184,1,0,0.482137379,0,0,0,0.8,6,60,51
185,1,1,1.877857033,1,0,22,0.8,6,22,1
186,1,1,0.360337661,1,0,19,0.8,6,19,19
187,1,0,0.372254437,0,0,0,0.8,6,21,78
188,1,1,0.449217427,1,0,72,0.8,6,72,62
189,1,0,1.443665007,0,0,0,0.8,6,26,80
190,0,1,1.692243262,0,0,0,0.8,6,28,84
191,1,1,0.835827304,1,0,49,0.8,6,49,69
192,1,1,0.40583808,1,0,23,0.8,6,23,9
193,1,1,0.829920802,1,0,36,0.8,6,36,81
194,1,1,0.998222747,1,0,64,0.8,6,64,14
195,1,0,0.385584122,0,0,0,0.8,6,75,57
196,1,0,0.861775657,0,0,0,0.8,6,50,58
197,1,1,0.362608121,1,0,62,0.8,6,62,2
198,0,1,1.527652053,0,0,0,0.8,6,32,94
199,1,0,1.203002572,0,0,0,0.8,6,31,62
0,1,1,6.973900056,1,1,27,0.75,7,27,15
1,1,1,3.326339702,1,1,78,0.75,7,78,85
2,1,1,4.453129702,1,1,64,0.75,7,64,29
3,1,1,5.294946843,1,1,73,0.75,7,73,91
4,1,1,7.622528049,1,1,90,0.75,7,90,12
5,0,0,2.281731911,1,1,62,0.75,7,77,62
6,1,1,5.858471638,1,1,21,0.75,7,21,29
7,0,1,1.940435308,0,1,0,0.75,7,5,51
8,0,0,1.859187321,1,1,54,0.75,7,16,54
9,1,1,1.333183214,1,1,72,0.75,7,72,6
10,0,1,2.547764977,0,1,0,0.75,7,13,44
11,1,1,2.130058417,1,1,23,0.75,7,23,22
12,0,0,0.95252525,1,1,92,0.75,7,46,92
13,0,1,1.366455986,0,1,0,0.75,7,47,70
14,0,1,2.355784431,0,1,0,0.75,7,9,12
15,0,1,2.657730841,0,1,0,0.75,7,51,36
16,0,1,0.939914015,0,1,0,0.75,7,8,31
17,0,1,1.106486455,0,1,0,0.75,7,17,31
18,0,1,2.218370869,0,1,0,0.75,7,75,57
19,0,1,1.197791736,0,1,0,0.75,7,34,80
20,1,1,0.745863089,1,1,31,0.75,7,31,47
21,1,1,2.087816515,1,1,82,0.75,7,82,80
22,0,1,2.36837846,0,1,0,0.75,7,99,42
23,1,1,1.797743018,1,1,97,0.75,7,97,74
24,1,1,1.737889758,1,1,58,0.75,7,58,36
25,0,1,1.064478184,0,1,0,0.75,7,24,95
26,0,1,1.273776992,0,1,0,0.75,7,30,76
27,1,1,2.867002483,1,1,68,0.75,7,68,2
28,1,1,2.476388647,1,1,58,0.75,7,58,76
29,0,0,0.60582918,1,1,92,0.75,7,20,92
30,1,1,1.097842416,1,1,96,0.75,7,96,35
31,1,1,0.729845795,1,1,34,0.75,7,34,8
32,0,1,1.280506104,0,1,0,0.75,7,15,86
33,0,1,0.609204451,0,1,0,0.75,7,33,10
34,0,0,0.541216371,1,1,55,0.75,7,12,55
35,0,1,1.323869675,0,1,0,0.75,7,78,92
36,1,0,0.987161775,0,1,0,0.75,7,80,53
37,1,1,0.871784067,1,1,59,0.75,7,59,6
38,0,1,2.033140563,0,1,0,0.75,7,8,45
39,0,1,0.947837843,0,1,0,0.75,7,20,70
40,0,0,1.201802097,1,1,27,0.75,7,78,27
41,0,1,1.493797464,0,1,0,0.75,7,36,90
42,1,0,0.494507714,0,1,0,0.75,7,84,46
43,0,1,1.318456926,0,1,0,0.75,7,14,24
44,1,0,0.749791347,0,1,0,0.75,7,70,20
45,0,1,0.795858275,0,1,0,0.75,7,20,85
46,0,0,1.359842483,1,1,75,0.75,7,40,75
47,1,1,1.069839619,1,1,34,0.75,7,34,67
48,1,1,0.719221629,1,1,93,0.75,7,93,11
49,1,1,0.294553232,1,1,84,0.75,7,84,84
50,1,1,2.854387022,1,1,63,0.75,7,63,46
51,1,0,0.832485793,0,1,0,0.75,7,87,66
52,0,1,0.763149657,0,1,0,0.75,7,22,91
53,0,1,0.536525946,0,1,0,0.75,7,7,12
54,1,1,0.455257131,1,1,68,0.75,7,68,61
55,1,0,0.593149425,0,1,0,0.75,7,54,2
56,1,1,0.87794691,1,1,52,0.75,7,52,10
57,1,1,0.526509703,1,1,26,0.75,7,26,91
58,1,0,0.877794779,0,1,0,0.75,7,86,55
59,1,1,0.918454994,1,1,83,0.75,7,83,65
60,0,1,0.909803409,0,1,0,0.75,7,2,24
61,0,1,1.317821233,0,1,0,0.75,7,48,63
62,1,0,0.749203044,0,1,0,0.75,7,95,8
63,0,1,1.483085762,0,1,0,0.75,7,46,65
64,1,1,0.971833902,1,1,85,0.75,7,85,18
65,0,0,1.465112488,1,1,62,0.75,7,54,62
66,0,1,1.034512465,0,1,0,0.75,7,44,98
67,0,0,0.901224871,1,1,67,0.75,7,3,67
68,1,0,1.149136758,0,1,0,0.75,7,51,34
69,1,1,0.699168618,1,1,88,0.75,7,88,46
70,1,1,0.763095627,1,1,91,0.75,7,91,3
71,0,0,1.504456342,1,1,53,0.75,7,29,53
72,0,1,0.920533523,0,1,0,0.75,7,14,99
73,0,1,0.735825717,0,1,0,0.75,7,1,73
74,0,1,0.526495215,0,1,0,0.75,7,32,40
75,0,1,1.219162316,0,1,0,0.75,7,54,60
76,1,1,0.910524525,1,1,83,0.75,7,83,58
77,0,0,1.678477802,1,1,51,0.75,7,68,51
78,1,1,0.975171442,1,1,92,0.75,7,92,15
79,1,0,0.996463844,0,1,0,0.75,7,76,30
80,0,1,1.064542477,0,1,0,0.75,7,17,51
81,1,0,0.649873118,0,1,0,0.75,7,97,15
82,0,0,1.323849451,1,1,41,0.75,7,35,41
83,0,1,1.091149225,0,1,0,0.75,7,60,60
84,0,1,1.035751855,0,1,0,0.75,7,74,81
85,1,1,1.21449151,1,1,88,0.75,7,88,48
86,1,1,1.185868414,1,1,34,0.75,7,34,68
87,0,1,0.782502077,0,1,0,0.75,7,47,76
88,1,1,0.987196186,1,1,17,0.75,7,17,19
89,1,1,1.031871591,1,1,47,0.75,7,47,62
90,0,1,1.034472923,0,1,0,0.75,7,46,77
91,0,1,0.677224526,0,1,0,0.75,7,13,43
92,1,0,1.062444931,0,1,0,0.75,7,64,44
93,1,0,0.655827987,0,1,0,0.75,7,90,49
94,1,1,1.089869689,1,1,43,0.75,7,43,22
95,1,0,0.834473164,0,1,0,0.75,7,18,84
96,0,0,0.877182328,1,1,51,0.75,7,30,51
97,0,1,0.637852601,0,1,0,0.75,7,6,11
98,0,1,0.720481847,0,1,0,0.75,7,7,37
99,0,1,0.607836171,0,1,0,0.75,7,3,83
100,1,0,1.502496439,0,0,0,0.2,7,56,13
101,0,0,0.9344904,1,0,65,0.2,7,57,65
102,0,0,1.061170225,1,0,74,0.2,7,31,74
103,1,0,3.006407039,0,0,0,0.2,7,76,72
104,1,0,1.122472659,0,0,0,0.2,7,68,11
105,1,0,1.018468305,0,0,0,0.2,7,94,96
106,1,1,1.133810697,1,0,49,0.2,7,49,43
107,0,0,1.212494178,1,0,57,0.2,7,52,57
108,1,0,0.84782423,0,0,0,0.2,7,79,10
109,0,0,0.953790902,1,0,49,0.2,7,58,49
110,1,1,0.999863263,1,0,77,0.2,7,77,16
111,1,0,0.947833919,0,0,0,0.2,7,93,31
112,1,1,0.945821193,1,0,22,0.2,7,22,14
113,1,0,1.079821752,0,0,0,0.2,7,61,35
114,0,0,0.91278356,1,0,67,0.2,7,47,67
115,1,1,0.927875387,1,0,62,0.2,7,62,52
116,1,1,1.294443359,1,0,21,0.2,7,21,80
117,0,0,0.718487231,1,0,58,0.2,7,68,58
118,0,0,1.541787167,1,0,7,0.2,7,2,7
119,0,1,0.740628129,0,0,0,0.2,7,23,25
120,1,1,0.587167389,1,0,92,0.2,7,92,91
121,0,0,0.768481209,1,0,89,0.2,7,77,89
122,0,0,0.589939869,1,0,99,0.2,7,54,99
123,0,0,0.723196975,1,0,33,0.2,7,7,33
124,0,0,1.002455538,1,0,99,0.2,7,20,99
125,0,0,2.393723783,1,0,62,0.8,7,2,62
126,1,1,0.941798154,1,0,97,0.8,7,97,66
127,1,0,1.02851594,0,0,0,0.8,7,84,61
128,0,1,1.191139898,0,0,0,0.8,7,45,80
129,1,1,1.011796244,1,0,100,0.8,7,100,62
130,0,1,1.28712172,0,0,0,0.8,7,80,38
131,1,1,0.879820485,1,0,49,0.8,7,49,18
132,0,1,0.784487336,0,0,0,0.8,7,14,6
133,1,1,0.805167286,1,0,22,0.8,7,22,16
134,1,0,0.753201029,0,0,0,0.8,7,84,39
135,1,1,0.495212832,1,0,33,0.8,7,33,2
136,0,1,0.583165179,0,0,0,0.8,7,74,97
137,0,0,1.147811341,1,0,32,0.8,7,16,32
138,0,0,1.065810544,1,0,96,0.8,7,74,96
139,1,0,0.699154733,0,0,0,0.8,7,6,3
140,1,1,0.971187946,1,0,72,0.8,7,72,40
141,0,1,1.48051371,0,0,0,0.8,7,13,28
142,1,1,0.857173387,1,0,99,0.8,7,99,37
143,0,1,1.467096539,0,0,0,0.8,7,60,79
144,0,1,0.733153754,0,0,0,0.8,7,27,45
145,1,1,0.675863793,1,0,44,0.8,7,44,6
146,1,0,0.925134904,0,0,0,0.8,7,94,5
147,1,1,1.476494294,1,0,51,0.8,7,51,54
148,0,1,0.717834333,0,0,0,0.8,7,7,77
149,0,1,0.669262665,0,0,0,0.8,7,66,62
150,0,1,1.076522849,0,0,0,0.2,7,45,94
151,0,0,0.949819781,1,0,79,0.2,7,15,79
152,0,0,0.91583857,1,0,76,0.2,7,78,76
153,1,0,1.01114093,0,0,0,0.2,7,54,33
154,0,0,0.750489825,1,0,53,0.2,7,9,53
155,1,0,1.028469154,0,0,0,0.2,7,91,65
156,1,0,0.951131314,0,0,0,0.2,7,87,52
157,0,1,2.229148373,0,0,0,0.2,7,6,67
158,1,0,0.975804117,0,0,0,0.2,7,65,24
159,0,0,0.725189176,1,0,99,0.2,7,89,99
160,1,0,0.940462474,0,0,0,0.2,7,35,9
161,1,1,0.803149126,1,0,67,0.2,7,67,42
162,0,0,0.583235509,1,0,99,0.2,7,46,99
163,1,0,0.73184524,0,0,0,0.2,7,45,49
164,1,0,0.346466364,0,0,0,0.2,7,2,62
165,1,0,0.544497164,0,0,0,0.2,7,87,2
166,0,0,0.710498204,1,0,77,0.2,7,94,77
167,0,0,0.589837542,1,0,75,0.2,7,48,75
168,1,0,0.52247761,0,0,0,0.2,7,57,22
169,1,1,0.721884839,1,0,100,0.2,7,100,40
170,1,1,0.953170603,1,0,41,0.2,7,41,27
171,1,0,0.743220707,0,0,0,0.2,7,22,8
172,0,1,0.74181047,0,0,0,0.2,7,87,23
173,1,1,0.924501927,1,0,69,0.2,7,69,49
174,0,1,0.747837481,0,0,0,0.8,7,18,52
175,0,1,0.723819085,0,0,0,0.8,7,1,84
176,1,1,0.611087382,1,0,17,0.8,7,17,42
177,1,1,0.726539647,1,0,21,0.8,7,21,41
178,1,0,0.302541656,0,0,0,0.8,7,91,96
179,0,1,0.89445984,0,0,0,0.8,7,71,34
180,0,1,1.519153955,0,0,0,0.8,7,14,14
181,0,1,0.767182053,0,0,0,0.8,7,43,70
182,1,1,0.852537596,1,0,67,0.8,7,67,93
183,0,0,1.29450554,1,0,49,0.8,7,33,49
184,1,0,1.111258078,0,0,0,0.8,7,60,51
185,1,1,0.814488673,1,0,22,0.8,7,22,1
186,0,1,1.745769516,0,0,0,0.8,7,19,19
187,0,0,1.111844268,1,0,78,0.8,7,21,78
188,1,1,0.655168448,1,0,72,0.8,7,72,62
189,0,0,0.761194886,1,0,80,0.8,7,26,80
190,0,1,0.798500959,0,0,0,0.8,7,28,84
191,0,1,1.378440282,0,0,0,0.8,7,49,69
192,0,1,1.047152073,0,0,0,0.8,7,23,9
193,0,1,0.585880609,0,0,0,0.8,7,36,81
194,1,1,0.494475114,1,0,64,0.8,7,64,14
195,1,0,0.4144964,0,0,0,0.8,7,75,57
196,0,0,0.465870732,1,0,58,0.8,7,50,58
197,1,1,0.635205388,1,0,62,0.8,7,62,2
198,0,1,0.917886915,0,0,0,0.8,7,32,94
199,1,0,0.701155084,0,0,0,0.8,7,31,62
0,1,1,1.044450045,1,1,27,0.75,5,27,15
1,1,1,2.387758194,1,1,78,0.75,5,78,85
2,1,1,0.392578126,1,1,64,0.75,5,64,29
3,1,1,0.405125101,1,1,73,0.75,5,73,91
4,1,1,0.601328137,1,1,90,0.75,5,90,12
5,1,0,0.40522924,0,1,0,0.75,5,77,62
6,1,1,0.425263288,1,1,21,0.75,5,21,29
7,1,1,0.436512613,1,1,5,0.75,5,5,51
8,1,0,0.487466306,0,1,0,0.75,5,16,54
9,1,1,0.696072939,1,1,72,0.75,5,72,6
10,1,1,0.639685956,1,1,13,0.75,5,13,44
11,1,1,0.41048474,1,1,23,0.75,5,23,22
12,1,0,0.398558669,0,1,0,0.75,5,46,92
13,1,1,0.554595809,1,1,47,0.75,5,47,70
14,1,1,0.992439275,1,1,9,0.75,5,9,12
15,1,1,0.413181463,1,1,51,0.75,5,51,36
16,1,1,0.640492196,1,1,8,0.75,5,8,31
17,1,1,0.419147819,1,1,17,0.75,5,17,31
18,1,1,0.42261305,1,1,75,0.75,5,75,57
19,1,1,0.43395625,1,1,34,0.75,5,34,80
20,1,1,0.364441231,1,1,31,0.75,5,31,47
21,1,1,0.505848635,1,1,82,0.75,5,82,80
22,1,1,0.681913484,1,1,99,0.75,5,99,42
23,1,1,0.626582068,1,1,97,0.75,5,97,74
24,1,1,0.557933056,1,1,58,0.75,5,58,36
25,0,1,3.721107425,0,1,0,0.75,5,24,95
26,1,1,0.416540745,1,1,30,0.75,5,30,76
27,1,1,0.45191931,1,1,68,0.75,5,68,2
28,1,1,0.349990492,1,1,58,0.75,5,58,76
29,1,0,0.363917221,0,1,0,0.75,5,20,92
30,1,1,0.32920846,1,1,96,0.75,5,96,35
31,1,1,0.360003441,1,1,34,0.75,5,34,8
32,1,1,0.509960428,1,1,15,0.75,5,15,86
33,1,1,0.285931704,1,1,33,0.75,5,33,10
34,1,0,0.294584821,0,1,0,0.75,5,12,55
35,1,1,0.526609235,1,1,78,0.75,5,78,92
36,1,0,1.021860238,0,1,0,0.75,5,80,53
37,1,1,0.593262419,1,1,59,0.75,5,59,6
38,1,1,1.165881959,1,1,8,0.75,5,8,45
39,1,1,0.915265431,1,1,20,0.75,5,20,70
40,1,0,0.346612193,0,1,0,0.75,5,78,27
41,1,1,0.640558301,1,1,36,0.75,5,36,90
42,1,0,0.851188532,0,1,0,0.75,5,84,46
43,1,1,0.397178915,1,1,14,0.75,5,14,24
44,1,0,0.369240336,0,1,0,0.75,5,70,20
45,1,1,1.094472533,1,1,20,0.75,5,20,85
46,1,0,1.318412815,0,1,0,0.75,5,40,75
47,1,1,0.365831852,1,1,34,0.75,5,34,67
48,1,1,0.467281031,1,1,93,0.75,5,93,11
49,1,1,1.164558349,1,1,84,0.75,5,84,84
50,1,1,1.410468742,1,1,63,0.75,5,63,46
51,1,0,0.36656444,0,1,0,0.75,5,87,66
52,1,1,1.395848061,1,1,22,0.75,5,22,91
53,1,1,1.359903529,1,1,7,0.75,5,7,12
54,1,1,0.645894999,1,1,68,0.75,5,68,61
55,1,0,0.335851261,0,1,0,0.75,5,54,2
56,1,1,0.374624726,1,1,52,0.75,5,52,10
57,1,1,0.315822042,1,1,26,0.75,5,26,91
58,1,0,0.331115545,0,1,0,0.75,5,86,55
59,1,1,0.281881488,1,1,83,0.75,5,83,65
60,1,1,0.314518052,1,1,2,0.75,5,2,24
61,1,1,0.369807812,1,1,48,0.75,5,48,63
62,1,0,0.407288155,0,1,0,0.75,5,95,8
63,1,1,0.467164215,1,1,46,0.75,5,46,65
64,1,1,0.292527114,1,1,85,0.75,5,85,18
65,1,0,0.485211189,0,1,0,0.75,5,54,62
66,1,1,0.397968855,1,1,44,0.75,5,44,98
67,1,0,0.465812835,0,1,0,0.75,5,3,67
68,1,0,0.563332237,0,1,0,0.75,5,51,34
69,1,1,0.336518046,1,1,88,0.75,5,88,46
70,1,1,0.503251824,1,1,91,0.75,5,91,3
71,1,0,0.551221736,0,1,0,0.75,5,29,53
72,1,1,0.349159198,1,1,14,0.75,5,14,99
73,1,1,0.387145742,1,1,1,0.75,5,1,73
74,1,1,0.35990866,1,1,32,0.75,5,32,40
75,1,1,2.201182042,1,1,54,0.75,5,54,60
76,1,1,0.373191846,1,1,83,0.75,5,83,58
77,1,0,0.362607798,0,1,0,0.75,5,68,51
78,1,1,0.447882073,1,1,92,0.75,5,92,15
79,1,0,0.473966996,0,1,0,0.75,5,76,30
80,1,1,0.411281623,1,1,17,0.75,5,17,51
81,1,0,0.302533724,0,1,0,0.75,5,97,15
82,1,0,0.350580909,0,1,0,0.75,5,35,41
83,1,1,0.332432816,1,1,60,0.75,5,60,60
84,1,1,0.459305867,1,1,74,0.75,5,74,81
85,1,1,0.669404542,1,1,88,0.75,5,88,48
86,1,1,0.726627346,1,1,34,0.75,5,34,68
87,1,1,0.517933478,1,1,47,0.75,5,47,76
88,1,1,0.389170246,1,1,17,0.75,5,17,19
89,1,1,0.457850349,1,1,47,0.75,5,47,62
90,1,1,0.347815667,1,1,46,0.75,5,46,77
91,1,1,0.385904235,1,1,13,0.75,5,13,43
92,1,0,0.454635351,0,1,0,0.75,5,64,44
93,1,0,0.424548207,0,1,0,0.75,5,90,49
94,1,1,0.331881941,1,1,43,0.75,5,43,22
95,1,0,0.450547102,0,1,0,0.75,5,18,84
96,1,0,0.380524071,0,1,0,0.75,5,30,51
97,1,1,0.273137212,1,1,6,0.75,5,6,11
98,1,1,0.314579026,1,1,7,0.75,5,7,37
99,1,1,0.297860793,1,1,3,0.75,5,3,83
100,1,0,0.56657259,0,0,0,0.2,5,56,13
101,1,0,0.379843099,0,0,0,0.2,5,57,65
102,1,0,0.392454368,0,0,0,0.2,5,31,74
103,1,0,0.325240046,0,0,0,0.2,5,76,72
104,0,0,0.372455334,1,0,11,0.2,5,68,11
105,0,0,0.30600288,1,0,96,0.2,5,94,96
106,0,1,0.289875366,0,0,0,0.2,5,49,43
107,0,0,0.386530271,1,0,57,0.2,5,52,57
108,0,0,0.375244423,1,0,10,0.2,5,79,10
109,0,0,0.428582425,1,0,49,0.2,5,58,49
110,0,1,0.351169817,0,0,0,0.2,5,77,16
111,0,0,0.325218614,1,0,31,0.2,5,93,31
112,0,1,0.332512202,0,0,0,0.2,5,22,14
113,0,0,0.30725797,1,0,35,0.2,5,61,35
114,0,0,0.427206897,1,0,67,0.2,5,47,67
115,0,1,0.270585678,0,0,0,0.2,5,62,52
116,0,1,0.35199447,0,0,0,0.2,5,21,80
117,0,0,0.389856048,1,0,58,0.2,5,68,58
118,0,0,0.274663664,1,0,7,0.2,5,2,7
119,0,1,0.363911788,0,0,0,0.2,5,23,25
120,0,1,0.353191605,0,0,0,0.2,5,92,91
121,0,0,0.447165785,1,0,89,0.2,5,77,89
122,0,0,0.353320193,1,0,99,0.2,5,54,99
123,0,0,0.383149557,1,0,33,0.2,5,7,33
124,0,0,0.347905014,1,0,99,0.2,5,20,99
125,0,0,0.763800405,1,0,62,0.8,5,2,62
126,0,1,0.265178348,0,0,0,0.8,5,97,66
127,0,0,0.346573556,1,0,61,0.8,5,84,61
128,0,1,0.408596068,0,0,0,0.8,5,45,80
129,0,1,0.404535288,0,0,0,0.8,5,100,62
130,0,1,0.624547905,0,0,0,0.8,5,80,38
131,1,1,0.347954517,1,0,49,0.8,5,49,18
132,1,1,0.28997226,1,0,14,0.8,5,14,6
133,1,1,0.354683043,1,0,22,0.8,5,22,16
134,1,0,0.305259424,0,0,0,0.8,5,84,39
135,1,1,0.297199139,1,0,33,0.8,5,33,2
136,1,1,0.305238597,1,0,74,0.8,5,74,97
137,1,0,0.32923774,0,0,0,0.8,5,16,32
138,1,0,0.279857889,0,0,0,0.8,5,74,96
139,1,0,0.282512957,0,0,0,0.8,5,6,3
140,1,1,0.563131205,1,0,72,0.8,5,72,40
141,1,1,0.312498981,1,0,13,0.8,5,13,28
142,1,1,0.463947708,1,0,99,0.8,5,99,37
143,1,1,0.369184192,1,0,60,0.8,5,60,79
144,1,1,0.422569584,1,0,27,0.8,5,27,45
145,1,1,0.38590333,1,0,44,0.8,5,44,6
146,1,0,0.350530802,0,0,0,0.8,5,94,5
147,0,1,0.340494912,0,0,0,0.8,5,51,54
148,1,1,0.363178897,1,0,7,0.8,5,7,77
149,1,1,0.648590816,1,0,66,0.8,5,66,62
150,0,1,1.359090648,0,0,0,0.2,5,45,94
151,1,0,0.349307406,0,0,0,0.2,5,15,79
152,1,0,0.339184282,0,0,0,0.2,5,78,76
153,0,0,0.353785041,1,0,33,0.2,5,54,33
154,0,0,0.391765548,1,0,53,0.2,5,9,53
155,0,0,0.404516875,1,0,65,0.2,5,91,65
156,0,0,0.33658717,1,0,52,0.2,5,87,52
157,0,1,0.375188882,0,0,0,0.2,5,6,67
158,0,0,0.28449158,1,0,24,0.2,5,65,24
159,0,0,0.405245841,1,0,99,0.2,5,89,99
160,0,0,0.545258398,1,0,9,0.2,5,35,9
161,0,1,0.815241283,0,0,0,0.2,5,67,42
162,0,0,0.314517448,1,0,99,0.2,5,46,99
163,0,0,0.337740234,1,0,49,0.2,5,45,49
164,0,0,0.384452641,1,0,62,0.2,5,2,62
165,0,0,0.301322704,1,0,2,0.2,5,87,2
166,0,0,0.349170367,1,0,77,0.2,5,94,77
167,0,0,0.267269862,1,0,75,0.2,5,48,75
168,0,0,0.340594221,1,0,22,0.2,5,57,22
169,0,1,0.299306954,0,0,0,0.2,5,100,40
170,0,1,0.379229741,0,0,0,0.2,5,41,27
171,0,0,0.341729477,1,0,8,0.2,5,22,8
172,0,1,0.340492799,0,0,0,0.2,5,87,23
173,0,1,0.283188496,0,0,0,0.2,5,69,49
174,0,1,0.323923379,0,0,0,0.8,5,18,52
175,0,1,1.277223951,0,0,0,0.8,5,1,84
176,0,1,0.862576104,0,0,0,0.8,5,17,42
177,1,1,1.447796348,1,0,21,0.8,5,21,41
178,1,0,0.290624255,0,0,0,0.8,5,91,96
179,1,1,0.435182664,1,0,71,0.8,5,71,34
180,1,1,0.342596086,1,0,14,0.8,5,14,14
181,1,1,0.925071916,1,0,43,0.8,5,43,70
182,1,1,0.396594535,1,0,67,0.8,5,67,93
183,1,0,0.288582243,0,0,0,0.8,5,33,49
184,0,0,0.873169208,1,0,51,0.8,5,60,51
185,1,1,0.346476059,1,0,22,0.8,5,22,1
186,1,1,0.344474193,1,0,19,0.8,5,19,19
187,1,0,0.639244954,0,0,0,0.8,5,21,78
188,1,1,0.449805458,1,0,72,0.8,5,72,62
189,1,0,1.139861632,0,0,0,0.8,5,26,80
190,1,1,0.434693366,1,0,28,0.8,5,28,84
191,1,1,0.357200769,1,0,49,0.8,5,49,69
192,1,1,0.379380665,1,0,23,0.8,5,23,9
193,1,1,0.607878874,1,0,36,0.8,5,36,81
194,1,1,0.483766839,1,0,64,0.8,5,64,14
195,1,0,0.284636166,0,0,0,0.8,5,75,57
196,1,0,0.541141776,0,0,0,0.8,5,50,58
197,1,1,0.507728553,1,0,62,0.8,5,62,2
198,1,1,0.32378,1,0,32,0.8,5,32,94
199,1,0,0.347203516,0,0,0,0.8,5,31,62
0,1,1,0.800821703,1,1,27,0.75,4,27,15
1,1,1,0.988469917,1,1,78,0.75,4,78,85
2,1,1,1.749683002,1,1,64,0.75,4,64,29
3,1,1,1.309799563,1,1,73,0.75,4,73,91
4,1,1,0.73429305,1,1,90,0.75,4,90,12
5,1,0,1.465850277,0,1,0,0.75,4,77,62
6,1,1,0.766867763,1,1,21,0.75,4,21,29
7,0,1,1.213639456,0,1,0,0.75,4,5,51
8,0,0,0.983538966,1,1,54,0.75,4,16,54
9,1,1,0.81404126,1,1,72,0.75,4,72,6
10,0,1,1.022866474,0,1,0,0.75,4,13,44
11,1,1,0.47954924,1,1,23,0.75,4,23,22
12,0,0,1.812382788,1,1,92,0.75,4,46,92
13,0,1,1.460494783,0,1,0,0.75,4,47,70
14,1,1,1.066033142,1,1,9,0.75,4,9,12
15,1,1,0.827349897,1,1,51,0.75,4,51,36
16,1,1,0.804734365,1,1,8,0.75,4,8,31
17,1,1,0.997634839,1,1,17,0.75,4,17,31
18,1,1,0.996078825,1,1,75,0.75,4,75,57
19,0,1,1.022076783,0,1,0,0.75,4,34,80
20,1,1,0.715837591,1,1,31,0.75,4,31,47
21,1,1,0.642961686,1,1,82,0.75,4,82,80
22,1,1,0.631695757,1,1,99,0.75,4,99,42
23,1,1,0.947641784,1,1,97,0.75,4,97,74
24,1,1,0.769783143,1,1,58,0.75,4,58,36
25,1,1,1.306638569,1,1,24,0.75,4,24,95
26,1,1,0.652152642,1,1,30,0.75,4,30,76
27,1,1,0.449644823,1,1,68,0.75,4,68,2
28,1,1,0.538992401,1,1,58,0.75,4,58,76
29,1,0,0.644245603,0,1,0,0.75,4,20,92
30,1,1,1.178363223,1,1,96,0.75,4,96,35
31,1,1,1.273627738,1,1,34,0.75,4,34,8
32,0,1,1.251071524,0,1,0,0.75,4,15,86
33,1,1,0.622319519,1,1,33,0.75,4,33,10
34,0,0,1.653260957,1,1,55,0.75,4,12,55
35,1,1,1.569981297,1,1,78,0.75,4,78,92
36,1,0,0.722291028,0,1,0,0.75,4,80,53
37,1,1,0.575177729,1,1,59,0.75,4,59,6
38,1,1,1.31947785,1,1,8,0.75,4,8,45
39,1,1,1.205627373,1,1,20,0.75,4,20,70
40,1,0,1.001369089,0,1,0,0.75,4,78,27
41,1,1,1.134950788,1,1,36,0.75,4,36,90
42,1,0,0.736813697,0,1,0,0.75,4,84,46
43,1,1,0.828716909,1,1,14,0.75,4,14,24
44,1,0,0.542393494,0,1,0,0.75,4,70,20
45,1,1,0.722809889,1,1,20,0.75,4,20,85
46,1,0,0.741277381,0,1,0,0.75,4,40,75
47,1,1,0.888939462,1,1,34,0.75,4,34,67
48,1,1,0.592375281,1,1,93,0.75,4,93,11
49,1,1,0.568651875,1,1,84,0.75,4,84,84
50,1,1,0.69436503,1,1,63,0.75,4,63,46
51,1,0,0.634501825,0,1,0,0.75,4,87,66
52,1,1,0.395057561,1,1,22,0.75,4,22,91
53,1,1,0.743839905,1,1,7,0.75,4,7,12
54,1,1,0.659912722,1,1,68,0.75,4,68,61
55,1,0,0.582885883,0,1,0,0.75,4,54,2
56,1,1,0.568743136,1,1,52,0.75,4,52,10
57,1,1,0.507560963,1,1,26,0.75,4,26,91
58,1,0,0.687144503,0,1,0,0.75,4,86,55
59,1,1,0.959558726,1,1,83,0.75,4,83,65
60,1,1,1.191324232,1,1,2,0.75,4,2,24
61,0,1,1.037372213,0,1,0,0.75,4,48,63
62,1,0,0.533789859,0,1,0,0.75,4,95,8
63,1,1,0.791128256,1,1,46,0.75,4,46,65
64,1,1,0.446911185,1,1,85,0.75,4,85,18
65,1,0,0.762188039,0,1,0,0.75,4,54,62
66,1,1,0.550482651,1,1,44,0.75,4,44,98
67,1,0,0.686330036,0,1,0,0.75,4,3,67
68,1,0,0.578226975,0,1,0,0.75,4,51,34
69,1,1,0.606683389,1,1,88,0.75,4,88,46
70,1,1,0.478802772,1,1,91,0.75,4,91,3
71,1,0,1.060661852,0,1,0,0.75,4,29,53
72,0,1,1.024710596,0,1,0,0.75,4,14,99
73,0,1,1.452913972,0,1,0,0.75,4,1,73
74,0,1,1.420129147,0,1,0,0.75,4,32,40
75,1,1,0.89010097,1,1,54,0.75,4,54,60
76,1,1,0.764563346,1,1,83,0.75,4,83,58
77,1,0,0.580939239,0,1,0,0.75,4,68,51
78,1,1,0.470927981,1,1,92,0.75,4,92,15
79,1,0,0.490982326,0,1,0,0.75,4,76,30
80,1,1,0.636517522,1,1,17,0.75,4,17,51
81,1,0,0.578497349,0,1,0,0.75,4,97,15
82,1,0,0.666911631,0,1,0,0.75,4,35,41
83,1,1,0.560989988,1,1,60,0.75,4,60,60
84,1,1,0.632645474,1,1,74,0.75,4,74,81
85,1,1,0.560266091,1,1,88,0.75,4,88,48
86,1,1,0.435741063,1,1,34,0.75,4,34,68
87,1,1,0.988219401,1,1,47,0.75,4,47,76
88,1,1,0.555399732,1,1,17,0.75,4,17,19
89,1,1,0.684427926,1,1,47,0.75,4,47,62
90,1,1,0.447726137,1,1,46,0.75,4,46,77
91,1,1,0.798118477,1,1,13,0.75,4,13,43
92,1,0,0.474503868,0,1,0,0.75,4,64,44
93,1,0,0.4798485,0,1,0,0.75,4,90,49
94,1,1,0.606010103,1,1,43,0.75,4,43,22
95,1,0,0.429069922,0,1,0,0.75,4,18,84
96,0,0,0.821884192,1,1,51,0.75,4,30,51
97,1,1,1.290203314,1,1,6,0.75,4,6,11
98,0,1,1.447593757,0,1,0,0.75,4,7,37
99,0,1,0.920938669,0,1,0,0.75,4,3,83
100,1,0,0.986527737,0,0,0,0.2,4,56,13
101,0,0,0.889787077,1,0,65,0.2,4,57,65
102,1,0,0.71475858,0,0,0,0.2,4,31,74
103,1,0,0.554134059,0,0,0,0.2,4,76,72
104,1,0,0.790383428,0,0,0,0.2,4,68,11
105,1,0,0.528264328,0,0,0,0.2,4,94,96
106,1,1,0.540471368,1,0,49,0.2,4,49,43
107,1,0,0.651258071,0,0,0,0.2,4,52,57
108,1,0,0.519268285,0,0,0,0.2,4,79,10
109,1,0,0.738027466,0,0,0,0.2,4,58,49
110,1,1,0.598500642,1,0,77,0.2,4,77,16
111,1,0,0.573772508,0,0,0,0.2,4,93,31
112,1,1,0.474213187,1,0,22,0.2,4,22,14
113,1,0,0.739162373,0,0,0,0.2,4,61,35
114,1,0,0.703297624,0,0,0,0.2,4,47,67
115,1,1,0.492049337,1,0,62,0.2,4,62,52
116,1,1,0.465068652,1,0,21,0.2,4,21,80
117,1,0,0.490760158,0,0,0,0.2,4,68,58
118,1,0,0.726560038,0,0,0,0.2,4,2,7
119,1,1,0.624228907,1,0,23,0.2,4,23,25
120,1,1,0.675204914,1,0,92,0.2,4,92,91
121,1,0,0.699189991,0,0,0,0.2,4,77,89
122,1,0,0.735748576,0,0,0,0.2,4,54,99
123,1,0,0.965619575,0,0,0,0.2,4,7,33
124,1,0,0.930665705,0,0,0,0.2,4,20,99
125,0,0,1.299674688,1,0,62,0.8,4,2,62
126,1,1,0.718614553,1,0,97,0.8,4,97,66
127,1,0,0.628037426,0,0,0,0.8,4,84,61
128,1,1,0.543424526,1,0,45,0.8,4,45,80
129,1,1,0.523376644,1,0,100,0.8,4,100,62
130,1,1,0.561697169,1,0,80,0.8,4,80,38
131,1,1,0.537097648,1,0,49,0.8,4,49,18
132,1,1,0.444370067,1,0,14,0.8,4,14,6
133,1,1,0.775047563,1,0,22,0.8,4,22,16
134,1,0,0.733694919,0,0,0,0.8,4,84,39
135,1,1,0.525033807,1,0,33,0.8,4,33,2
136,1,1,0.706468896,1,0,74,0.8,4,74,97
137,1,0,0.542236213,0,0,0,0.8,4,16,32
138,1,0,0.555937379,0,0,0,0.8,4,74,96
139,1,0,0.54592925,0,0,0,0.8,4,6,3
140,1,1,0.54517693,1,0,72,0.8,4,72,40
141,1,1,0.585222108,1,0,13,0.8,4,13,28
142,1,1,0.515900975,1,0,99,0.8,4,99,37
143,1,1,0.458102994,1,0,60,0.8,4,60,79
144,1,1,0.67186924,1,0,27,0.8,4,27,45
145,1,1,0.537327997,1,0,44,0.8,4,44,6
146,1,0,0.817880596,0,0,0,0.8,4,94,5
147,1,1,0.516718249,1,0,51,0.8,4,51,54
148,1,1,1.278150823,1,0,7,0.8,4,7,77
149,1,1,0.463674231,1,0,66,0.8,4,66,62
150,0,1,1.080291419,0,0,0,0.2,4,45,94
151,1,0,0.546968401,0,0,0,0.2,4,15,79
152,1,0,0.730798147,0,0,0,0.2,4,78,76
153,1,0,0.522932653,0,0,0,0.2,4,54,33
154,1,0,0.696223965,0,0,0,0.2,4,9,53
155,0,0,0.434193702,1,0,65,0.2,4,91,65
156,0,0,0.346055607,1,0,52,0.2,4,87,52
157,0,1,0.500415321,0,0,0,0.2,4,6,67
158,0,0,0.327271479,1,0,24,0.2,4,65,24
159,0,0,0.431948386,1,0,99,0.2,4,89,99
160,1,0,0.951271222,0,0,0,0.2,4,35,9
161,0,1,0.694790878,0,0,0,0.2,4,67,42
162,0,0,0.716528288,1,0,99,0.2,4,46,99
163,0,0,0.850736068,1,0,49,0.2,4,45,49
164,0,0,0.473050683,1,0,62,0.2,4,2,62
165,1,0,0.963579903,0,0,0,0.2,4,87,2
166,1,0,0.653031559,0,0,0,0.2,4,94,77
167,0,0,1.293916499,1,0,75,0.2,4,48,75
168,0,0,0.97359623,1,0,22,0.2,4,57,22
169,1,1,0.968697945,1,0,100,0.2,4,100,40
170,0,1,1.066315986,0,0,0,0.2,4,41,27
171,0,0,0.814611665,1,0,8,0.2,4,22,8
172,0,1,0.750400614,0,0,0,0.2,4,87,23
173,0,1,0.812218163,0,0,0,0.2,4,69,49
174,0,1,1.179702505,0,0,0,0.8,4,18,52
175,1,1,1.107989506,1,0,1,0.8,4,1,84
176,0,1,0.750297399,0,0,0,0.8,4,17,42
177,1,1,0.405302514,1,0,21,0.8,4,21,41
178,1,0,1.117039576,0,0,0,0.8,4,91,96
179,1,1,0.667461589,1,0,71,0.8,4,71,34
180,1,1,0.66325382,1,0,14,0.8,4,14,14
181,0,1,1.4299252,0,0,0,0.8,4,43,70
182,1,1,0.577420536,1,0,67,0.8,4,67,93
183,1,0,0.994344982,0,0,0,0.8,4,33,49
184,1,0,0.820274425,0,0,0,0.8,4,60,51
185,1,1,0.885450129,1,0,22,0.8,4,22,1
186,1,1,0.883361349,1,0,19,0.8,4,19,19
187,1,0,1.028521826,0,0,0,0.8,4,21,78
188,1,1,0.728969561,1,0,72,0.8,4,72,62
189,1,0,0.838810648,0,0,0,0.8,4,26,80
190,1,1,0.548585767,1,0,28,0.8,4,28,84
191,0,1,0.936401156,0,0,0,0.8,4,49,69
192,1,1,0.569219983,1,0,23,0.8,4,23,9
193,0,1,0.933356481,0,0,0,0.8,4,36,81
194,1,1,0.565042798,1,0,64,0.8,4,64,14
195,1,0,0.763680438,0,0,0,0.8,4,75,57
196,1,0,0.997255604,0,0,0,0.8,4,50,58
197,1,1,0.532037195,1,0,62,0.8,4,62,2
198,0,1,0.899668618,0,0,0,0.8,4,32,94
199,1,0,1.136249271,0,0,0,0.8,4,31,62
0,1,1,2.583298658,1,1,27,0.75,13,27,15
1,1,1,3.357868555,1,1,78,0.75,13,78,85
2,1,1,2.799166417,1,1,64,0.75,13,64,29
3,1,1,1.894299757,1,1,73,0.75,13,73,91
4,1,1,1.68688073,1,1,90,0.75,13,90,12
5,1,0,2.278198756,0,1,0,0.75,13,77,62
6,1,1,2.292231794,1,1,21,0.75,13,21,29
7,1,1,1.871702093,1,1,5,0.75,13,5,51
8,1,0,1.063463424,0,1,0,0.75,13,16,54
9,1,1,2.193864534,1,1,72,0.75,13,72,6
10,1,1,1.478632055,1,1,13,0.75,13,13,44
11,1,1,1.489751486,1,1,23,0.75,13,23,22
12,1,0,1.050831808,0,1,0,0.75,13,46,92
13,1,1,0.929897675,1,1,47,0.75,13,47,70
14,1,1,0.454529048,1,1,9,0.75,13,9,12
15,1,1,0.667196673,1,1,51,0.75,13,51,36
16,1,1,0.726090186,1,1,8,0.75,13,8,31
17,1,1,0.522160816,1,1,17,0.75,13,17,31
18,1,1,0.758443921,1,1,75,0.75,13,75,57
19,1,1,0.443935631,1,1,34,0.75,13,34,80
20,1,1,0.836935534,1,1,31,0.75,13,31,47
21,1,1,0.778754492,1,1,82,0.75,13,82,80
22,1,1,0.6847771,1,1,99,0.75,13,99,42
23,1,1,0.574611295,1,1,97,0.75,13,97,74
24,1,1,0.928124194,1,1,58,0.75,13,58,36
25,1,1,1.078797386,1,1,24,0.75,13,24,95
26,1,1,0.452898404,1,1,30,0.75,13,30,76
27,1,1,0.811165532,1,1,68,0.75,13,68,2
28,1,1,0.478653437,1,1,58,0.75,13,58,76
29,1,0,0.45652106,0,1,0,0.75,13,20,92
30,1,1,0.725926822,1,1,96,0.75,13,96,35
31,1,1,0.481115869,1,1,34,0.75,13,34,8
32,1,1,0.530497503,1,1,15,0.75,13,15,86
33,1,1,0.437160737,1,1,33,0.75,13,33,10
34,1,0,0.756350555,0,1,0,0.75,13,12,55
35,1,1,0.687165976,1,1,78,0.75,13,78,92
36,1,0,0.463608142,0,1,0,0.75,13,80,53
37,1,1,0.502361719,1,1,59,0.75,13,59,6
38,1,1,0.57364052,1,1,8,0.75,13,8,45
39,1,1,0.562400918,1,1,20,0.75,13,20,70
40,1,0,0.686334188,0,1,0,0.75,13,78,27
41,1,1,0.901272228,1,1,36,0.75,13,36,90
42,1,0,0.569063767,0,1,0,0.75,13,84,46
43,1,1,0.577926468,1,1,14,0.75,13,14,24
44,1,0,0.51112606,0,1,0,0.75,13,70,20
45,1,1,0.557643695,1,1,20,0.75,13,20,85
46,1,0,0.893492346,0,1,0,0.75,13,40,75
47,1,1,0.730736219,1,1,34,0.75,13,34,67
48,1,1,0.489689476,1,1,93,0.75,13,93,11
49,1,1,0.512832399,1,1,84,0.75,13,84,84
50,1,1,0.893711733,1,1,63,0.75,13,63,46
51,1,0,0.442552171,0,1,0,0.75,13,87,66
52,1,1,0.561941618,1,1,22,0.75,13,22,91
53,1,1,0.480540247,1,1,7,0.75,13,7,12
54,1,1,0.887487229,1,1,68,0.75,13,68,61
55,1,0,0.438556599,0,1,0,0.75,13,54,2
56,1,1,0.873256615,1,1,52,0.75,13,52,10
57,1,1,0.606725543,1,1,26,0.75,13,26,91
58,1,0,0.560099284,0,1,0,0.75,13,86,55
59,1,1,0.422627344,1,1,83,0.75,13,83,65
60,1,1,0.577048067,1,1,2,0.75,13,2,24
61,1,1,0.55438155,1,1,48,0.75,13,48,63
62,1,0,0.62572621,0,1,0,0.75,13,95,8
63,1,1,0.498120247,1,1,46,0.75,13,46,65
64,1,1,0.572947721,1,1,85,0.75,13,85,18
65,1,0,0.472723587,0,1,0,0.75,13,54,62
66,1,1,0.565297418,1,1,44,0.75,13,44,98
67,1,0,0.404485834,0,1,0,0.75,13,3,67
68,1,0,0.495996945,0,1,0,0.75,13,51,34
69,1,1,0.64674241,1,1,88,0.75,13,88,46
70,1,1,0.551874643,1,1,91,0.75,13,91,3
71,1,0,0.578367807,0,1,0,0.75,13,29,53
72,1,1,0.553841851,1,1,14,0.75,13,14,99
73,1,1,0.456191767,1,1,1,0.75,13,1,73
74,1,1,0.574266178,1,1,32,0.75,13,32,40
75,1,1,0.774674673,1,1,54,0.75,13,54,60
76,1,1,0.776457562,1,1,83,0.75,13,83,58
77,1,0,0.562461645,0,1,0,0.75,13,68,51
78,1,1,0.566268193,1,1,92,0.75,13,92,15
79,1,0,0.478471257,0,1,0,0.75,13,76,30
80,1,1,0.601023633,1,1,17,0.75,13,17,51
81,1,0,0.645473133,0,1,0,0.75,13,97,15
82,1,0,0.432499736,0,1,0,0.75,13,35,41
83,1,1,0.415243042,1,1,60,0.75,13,60,60
84,1,1,0.801894422,1,1,74,0.75,13,74,81
85,1,1,0.662654559,1,1,88,0.75,13,88,48
86,1,1,0.529559658,1,1,34,0.75,13,34,68
87,1,1,0.459491545,1,1,47,0.75,13,47,76
88,1,1,0.42226897,1,1,17,0.75,13,17,19
89,1,1,0.586278978,1,1,47,0.75,13,47,62
90,1,1,0.522857892,1,1,46,0.75,13,46,77
91,1,1,0.484795832,1,1,13,0.75,13,13,43
92,1,0,0.487689338,0,1,0,0.75,13,64,44
93,1,0,0.454355848,0,1,0,0.75,13,90,49
94,1,1,0.629245802,1,1,43,0.75,13,43,22
95,1,0,0.589869134,0,1,0,0.75,13,18,84
96,1,0,0.995220967,0,1,0,0.75,13,30,51
97,1,1,0.913746467,1,1,6,0.75,13,6,11
98,1,1,0.575993045,1,1,7,0.75,13,7,37
99,1,1,0.732278339,1,1,3,0.75,13,3,83
100,1,0,1.331304828,0,0,0,0.2,13,56,13
101,1,0,0.958979429,0,0,0,0.2,13,57,65
102,1,0,0.658194128,0,0,0,0.2,13,31,74
103,1,0,1.155545881,0,0,0,0.2,13,76,72
104,1,0,3.936727737,0,0,0,0.2,13,68,11
105,0,0,1.704878976,1,0,96,0.2,13,94,96
106,0,1,1.008473964,0,0,0,0.2,13,49,43
107,0,0,0.812475437,1,0,57,0.2,13,52,57
108,0,0,0.805023138,1,0,10,0.2,13,79,10
109,0,0,0.783803375,1,0,49,0.2,13,58,49
110,0,1,0.697974502,0,0,0,0.2,13,77,16
111,0,0,0.643017544,1,0,31,0.2,13,93,31
112,0,1,0.724050704,0,0,0,0.2,13,22,14
113,0,0,0.589813111,1,0,35,0.2,13,61,35
114,0,0,0.718732827,1,0,67,0.2,13,47,67
115,0,1,0.89260026,0,0,0,0.2,13,62,52
116,0,1,0.746307956,0,0,0,0.2,13,21,80
117,0,0,0.639802013,1,0,58,0.2,13,68,58
118,0,0,0.70844561,1,0,7,0.2,13,2,7
119,0,1,0.852173273,0,0,0,0.2,13,23,25
120,0,1,1.068971608,0,0,0,0.2,13,92,91
121,0,0,1.550222188,1,0,89,0.2,13,77,89
122,0,0,1.354060724,1,0,99,0.2,13,54,99
123,0,0,0.719990557,1,0,33,0.2,13,7,33
124,0,0,0.550322686,1,0,99,0.2,13,20,99
125,0,0,1.401557259,1,0,62,0.8,13,2,62
126,0,1,0.718911586,0,0,0,0.8,13,97,66
127,0,0,1.223130607,1,0,61,0.8,13,84,61
128,0,1,0.910581828,0,0,0,0.8,13,45,80
129,0,1,0.677854238,0,0,0,0.8,13,100,62
130,0,1,1.273909814,0,0,0,0.8,13,80,38
131,1,1,4.229199017,1,0,49,0.8,13,49,18
132,1,1,1.104004167,1,0,14,0.8,13,14,6
133,1,1,0.712805543,1,0,22,0.8,13,22,16
134,1,0,0.535392003,0,0,0,0.8,13,84,39
135,1,1,0.630589063,1,0,33,0.8,13,33,2
136,1,1,0.605062397,1,0,74,0.8,13,74,97
137,1,0,0.893184436,0,0,0,0.8,13,16,32
138,1,0,0.995068294,0,0,0,0.8,13,74,96
139,1,0,0.681261357,0,0,0,0.8,13,6,3
140,1,1,0.819986324,1,0,72,0.8,13,72,40
141,1,1,1.099480871,1,0,13,0.8,13,13,28
142,1,1,0.475927143,1,0,99,0.8,13,99,37
143,1,1,0.554524387,1,0,60,0.8,13,60,79
144,1,1,0.453220855,1,0,27,0.8,13,27,45
145,1,1,0.540718861,1,0,44,0.8,13,44,6
146,1,0,0.51969924,0,0,0,0.8,13,94,5
147,1,1,0.43891925,1,0,51,0.8,13,51,54
148,1,1,0.966601079,1,0,7,0.8,13,7,77
149,1,1,0.618670774,1,0,66,0.8,13,66,62
150,0,1,2.223889265,0,0,0,0.2,13,45,94
151,0,0,1.331986936,1,0,79,0.2,13,15,79
152,0,0,1.449992495,1,0,76,0.2,13,78,76
153,0,0,0.931433808,1,0,33,0.2,13,54,33
154,0,0,0.528973772,1,0,53,0.2,13,9,53
155,0,0,0.67204242,1,0,65,0.2,13,91,65
156,0,0,0.445362713,1,0,52,0.2,13,87,52
157,0,1,0.461906079,0,0,0,0.2,13,6,67
158,0,0,0.447104547,1,0,24,0.2,13,65,24
159,0,0,1.089457944,1,0,99,0.2,13,89,99
160,0,0,1.044731752,1,0,9,0.2,13,35,9
161,0,1,0.872537301,0,0,0,0.2,13,67,42
162,0,0,0.727040433,1,0,99,0.2,13,46,99
163,0,0,0.976430706,1,0,49,0.2,13,45,49
164,0,0,0.638724753,1,0,62,0.2,13,2,62
165,0,0,0.699729594,1,0,2,0.2,13,87,2
166,0,0,0.622174116,1,0,77,0.2,13,94,77
167,0,0,0.497932934,1,0,75,0.2,13,48,75
168,0,0,0.58914426,1,0,22,0.2,13,57,22
169,0,1,0.432673791,0,0,0,0.2,13,100,40
170,0,1,0.594650305,0,0,0,0.2,13,41,27
171,0,0,0.585636214,1,0,8,0.2,13,22,8
172,0,1,0.445836126,0,0,0,0.2,13,87,23
173,0,1,0.972465926,0,0,0,0.2,13,69,49
174,0,1,1.063725576,0,0,0,0.8,13,18,52
175,0,1,1.249223487,0,0,0,0.8,13,1,84
176,0,1,2.207436561,0,0,0,0.8,13,17,42
177,1,1,0.837831469,1,0,21,0.8,13,21,41
178,1,0,0.657224637,0,0,0,0.8,13,91,96
179,1,1,0.464046915,1,0,71,0.8,13,71,34
180,1,1,0.523756393,1,0,14,0.8,13,14,14
181,1,1,0.447315808,1,0,43,0.8,13,43,70
182,1,1,0.603864538,1,0,67,0.8,13,67,93
183,1,0,0.458152133,0,0,0,0.8,13,33,49
184,1,0,0.491944496,0,0,0,0.8,13,60,51
185,1,1,0.827127718,1,0,22,0.8,13,22,1
186,1,1,0.599768896,1,0,19,0.8,13,19,19
187,1,0,2.010346233,0,0,0,0.8,13,21,78
188,1,1,0.458532317,1,0,72,0.8,13,72,62
189,1,0,0.519934877,0,0,0,0.8,13,26,80
190,1,1,0.815987331,1,0,28,0.8,13,28,84
191,1,1,0.665944929,1,0,49,0.8,13,49,69
192,1,1,0.558514826,1,0,23,0.8,13,23,9
193,1,1,0.415254589,1,0,36,0.8,13,36,81
194,1,1,0.998759803,1,0,64,0.8,13,64,14
195,1,0,0.508833835,0,0,0,0.8,13,75,57
196,1,0,1.066249162,0,0,0,0.8,13,50,58
197,1,1,0.710496211,1,0,62,0.8,13,62,2
198,1,1,0.416183881,1,0,32,0.8,13,32,94
199,1,0,0.769561642,0,0,0,0.8,13,31,62
0,1,1,6.876012739,1,1,27,0.75,12,27,15
1,1,1,1.689091863,1,1,78,0.75,12,78,85
2,1,1,1.151521359,1,1,64,0.75,12,64,29
3,1,1,0.607487287,1,1,73,0.75,12,73,91
4,1,1,1.646785301,1,1,90,0.75,12,90,12
5,1,0,1.649412809,0,1,0,0.75,12,77,62
6,0,1,1.516155285,0,1,0,0.75,12,21,29
7,0,1,3.56906682,0,1,0,0.75,12,5,51
8,1,0,1.073521909,0,1,0,0.75,12,16,54
9,1,1,1.491944061,1,1,72,0.75,12,72,6
10,0,1,1.365691087,0,1,0,0.75,12,13,44
11,1,1,1.909321026,1,1,23,0.75,12,23,22
12,1,0,3.471192561,0,1,0,0.75,12,46,92
13,0,1,2.02401493,0,1,0,0.75,12,47,70
14,1,1,1.211014494,1,1,9,0.75,12,9,12
15,1,1,1.163987483,1,1,51,0.75,12,51,36
16,1,1,1.346743861,1,1,8,0.75,12,8,31
17,0,1,0.90057806,0,1,0,0.75,12,17,31
18,1,1,1.040261092,1,1,75,0.75,12,75,57
19,1,1,2.399288469,1,1,34,0.75,12,34,80
20,1,1,0.995041775,1,1,31,0.75,12,31,47
21,0,1,0.645699059,0,1,0,0.75,12,82,80
22,1,1,1.066883003,1,1,99,0.75,12,99,42
23,1,1,1.342179506,1,1,97,0.75,12,97,74
24,1,1,0.965145742,1,1,58,0.75,12,58,36
25,0,1,2.193370331,0,1,0,0.75,12,24,95
26,1,1,0.736354939,1,1,30,0.75,12,30,76
27,1,1,0.676566722,1,1,68,0.75,12,68,2
28,1,1,2.768653107,1,1,58,0.75,12,58,76
29,0,0,0.933385137,1,1,92,0.75,12,20,92
30,1,1,0.795526051,1,1,96,0.75,12,96,35
31,1,1,0.867790229,1,1,34,0.75,12,34,8
32,0,1,1.996595016,0,1,0,0.75,12,15,86
33,1,1,1.021401107,1,1,33,0.75,12,33,10
34,0,0,0.50292708,1,1,55,0.75,12,12,55
35,0,1,1.103812239,0,1,0,0.75,12,78,92
36,1,0,1.438892683,0,1,0,0.75,12,80,53
37,1,1,1.113596971,1,1,59,0.75,12,59,6
38,1,1,0.981709651,1,1,8,0.75,12,8,45
39,0,1,0.949556886,0,1,0,0.75,12,20,70
40,1,0,1.745526842,0,1,0,0.75,12,78,27
41,1,1,1.751311295,1,1,36,0.75,12,36,90
42,1,0,2.477648431,0,1,0,0.75,12,84,46
43,0,1,2.018796692,0,1,0,0.75,12,14,24
44,1,0,1.039408776,0,1,0,0.75,12,70,20
45,1,1,0.35880799,1,1,20,0.75,12,20,85
46,1,0,2.058199053,0,1,0,0.75,12,40,75
47,0,1,2.639451884,0,1,0,0.75,12,34,67
48,1,1,0.849822331,1,1,93,0.75,12,93,11
49,1,1,0.921117016,1,1,84,0.75,12,84,84
50,1,1,3.482838017,1,1,63,0.75,12,63,46
51,1,0,3.040009631,0,1,0,0.75,12,87,66
52,1,1,0.418300271,1,1,22,0.75,12,22,91
53,0,1,0.574661394,0,1,0,0.75,12,7,12
54,1,1,0.947540923,1,1,68,0.75,12,68,61
55,1,0,0.826051591,0,1,0,0.75,12,54,2
56,1,1,0.417589509,1,1,52,0.75,12,52,10
57,0,1,1.090390307,0,1,0,0.75,12,26,91
58,1,0,0.997153105,0,1,0,0.75,12,86,55
59,1,1,0.360499791,1,1,83,0.75,12,83,65
60,0,1,1.489986259,0,1,0,0.75,12,2,24
61,1,1,0.859768288,1,1,48,0.75,12,48,63
62,1,0,0.394824613,0,1,0,0.75,12,95,8
63,1,1,1.167182061,1,1,46,0.75,12,46,65
64,1,1,0.778107689,1,1,85,0.75,12,85,18
65,1,0,0.429845655,0,1,0,0.75,12,54,62
66,0,1,0.528146713,0,1,0,0.75,12,44,98
67,0,0,1.922459423,1,1,67,0.75,12,3,67
68,1,0,1.153135754,0,1,0,0.75,12,51,34
69,0,1,0.609008881,0,1,0,0.75,12,88,46
70,1,1,0.913450029,1,1,91,0.75,12,91,3
71,1,0,1.967449516,0,1,0,0.75,12,29,53
72,0,1,1.893260467,0,1,0,0.75,12,14,99
73,1,1,0.919162208,1,1,1,0.75,12,1,73
74,1,1,1.055880739,1,1,32,0.75,12,32,40
75,1,1,1.859523242,1,1,54,0.75,12,54,60
76,1,1,1.188416383,1,1,83,0.75,12,83,58
77,0,0,0.849380564,1,1,51,0.75,12,68,51
78,1,1,1.293833609,1,1,92,0.75,12,92,15
79,0,0,1.094787022,1,1,30,0.75,12,76,30
80,1,1,1.57605512,1,1,17,0.75,12,17,51
81,1,0,1.179413831,0,1,0,0.75,12,97,15
82,1,0,1.235375825,0,1,0,0.75,12,35,41
83,0,1,0.934397822,0,1,0,0.75,12,60,60
84,1,1,3.109816506,1,1,74,0.75,12,74,81
85,0,1,4.986917198,0,1,0,0.75,12,88,48
86,1,1,1.459169487,1,1,34,0.75,12,34,68
87,0,1,2.493283047,0,1,0,0.75,12,47,76
88,1,1,1.12453979,1,1,17,0.75,12,17,19
89,0,1,1.879209028,0,1,0,0.75,12,47,62
90,0,1,1.351640503,0,1,0,0.75,12,46,77
91,1,1,1.628017689,1,1,13,0.75,12,13,43
92,0,0,1.230340195,1,1,44,0.75,12,64,44
93,1,0,1.488728956,0,1,0,0.75,12,90,49
94,0,1,0.955424304,0,1,0,0.75,12,43,22
95,1,0,2.575670658,0,1,0,0.75,12,18,84
96,0,0,0.344170237,1,1,51,0.75,12,30,51
97,0,1,0.866152313,0,1,0,0.75,12,6,11
98,0,1,0.632492665,0,1,0,0.75,12,7,37
99,0,1,0.530059183,0,1,0,0.75,12,3,83
100,1,0,3.020076234,0,0,0,0.2,12,56,13
101,1,0,0.593271629,0,0,0,0.2,12,57,65
102,0,0,1.461952661,1,0,74,0.2,12,31,74
103,0,0,0.652112163,1,0,72,0.2,12,76,72
104,1,0,0.877551012,0,0,0,0.2,12,68,11
105,0,0,0.782900412,1,0,96,0.2,12,94,96
106,0,1,1.672416765,0,0,0,0.2,12,49,43
107,0,0,1.057120937,1,0,57,0.2,12,52,57
108,0,0,0.785879024,1,0,10,0.2,12,79,10
109,0,0,0.88465991,1,0,49,0.2,12,58,49
110,0,1,1.054104691,0,0,0,0.2,12,77,16
111,1,0,1.643627073,0,0,0,0.2,12,93,31
112,0,1,1.118771161,0,0,0,0.2,12,22,14
113,1,0,1.264864303,0,0,0,0.2,12,61,35
114,0,0,2.91107783,1,0,67,0.2,12,47,67
115,1,1,1.012617086,1,0,62,0.2,12,62,52
116,1,1,0.634770352,1,0,21,0.2,12,21,80
117,0,0,1.440427535,1,0,58,0.2,12,68,58
118,0,0,1.630690957,1,0,7,0.2,12,2,7
119,0,1,2.461170054,0,0,0,0.2,12,23,25
120,0,1,0.473810661,0,0,0,0.2,12,92,91
121,0,0,1.411506126,1,0,89,0.2,12,77,89
122,0,0,0.896746705,1,0,99,0.2,12,54,99
123,0,0,0.904880263,1,0,33,0.2,12,7,33
124,0,0,0.429428692,1,0,99,0.2,12,20,99
125,0,0,1.547915035,1,0,62,0.8,12,2,62
126,1,1,1.017510308,1,0,97,0.8,12,97,66
127,1,0,0.244307814,0,0,0,0.8,12,84,61
128,0,1,0.325119946,0,0,0,0.8,12,45,80
129,1,1,0.574911999,1,0,100,0.8,12,100,62
130,0,1,0.508147029,0,0,0,0.8,12,80,38
131,0,1,1.636666144,0,0,0,0.8,12,49,18
132,1,1,1.282509749,1,0,14,0.8,12,14,6
133,0,1,0.901550119,0,0,0,0.8,12,22,16
134,1,0,0.352094245,0,0,0,0.8,12,84,39
135,1,1,0.936739657,1,0,33,0.8,12,33,2
136,1,1,2.155543876,1,0,74,0.8,12,74,97
137,0,0,1.052252092,1,0,32,0.8,12,16,32
138,0,0,0.548401278,1,0,96,0.8,12,74,96
139,1,0,1.636590021,0,0,0,0.8,12,6,3
140,0,1,0.609967255,0,0,0,0.8,12,72,40
141,0,1,0.479512149,0,0,0,0.8,12,13,28
142,0,1,0.398200516,0,0,0,0.8,12,99,37
143,0,1,0.718149266,0,0,0,0.8,12,60,79
144,1,1,0.351031524,1,0,27,0.8,12,27,45
145,1,1,0.998087957,1,0,44,0.8,12,44,6
146,0,0,0.57051443,1,0,5,0.8,12,94,5
147,1,1,0.435741298,1,0,51,0.8,12,51,54
148,0,1,1.636078974,0,0,0,0.8,12,7,77
149,1,1,1.251841373,1,0,66,0.8,12,66,62
150,0,1,1.769377981,0,0,0,0.2,12,45,94
151,0,0,1.154227556,1,0,79,0.2,12,15,79
152,1,0,1.535131591,0,0,0,0.2,12,78,76
153,0,0,1.816109911,1,0,33,0.2,12,54,33
154,0,0,0.72304377,1,0,53,0.2,12,9,53
155,0,0,0.491564304,1,0,65,0.2,12,91,65
156,1,0,0.804431525,0,0,0,0.2,12,87,52
157,0,1,1.186448745,0,0,0,0.2,12,6,67
158,0,0,2.637873839,1,0,24,0.2,12,65,24
159,0,0,1.725623381,1,0,99,0.2,12,89,99
160,1,0,2.688538478,0,0,0,0.2,12,35,9
161,0,1,1.787803041,0,0,0,0.2,12,67,42
162,0,0,0.61573845,1,0,99,0.2,12,46,99
163,1,0,0.914342116,0,0,0,0.2,12,45,49
164,0,0,1.057240252,1,0,62,0.2,12,2,62
165,1,0,2.068026978,0,0,0,0.2,12,87,2
166,0,0,0.641245894,1,0,77,0.2,12,94,77
167,0,0,0.932411795,1,0,75,0.2,12,48,75
168,1,0,0.657938954,0,0,0,0.2,12,57,22
169,1,1,0.816674842,1,0,100,0.2,12,100,40
170,0,1,0.712411,0,0,0,0.2,12,41,27
171,1,0,1.320235278,0,0,0,0.2,12,22,8
172,1,1,1.159737454,1,0,87,0.2,12,87,23
173,1,1,0.371383167,1,0,69,0.2,12,69,49
174,0,1,1.201156206,0,0,0,0.8,12,18,52
175,0,1,1.252129184,0,0,0,0.8,12,1,84
176,1,1,0.883503105,1,0,17,0.8,12,17,42
177,1,1,0.595404768,1,0,21,0.8,12,21,41
178,1,0,2.849047421,0,0,0,0.8,12,91,96
179,1,1,0.638758656,1,0,71,0.8,12,71,34
180,1,1,1.916979888,1,0,14,0.8,12,14,14
181,1,1,2.293445299,1,0,43,0.8,12,43,70
182,0,1,2.580918832,0,0,0,0.8,12,67,93
183,1,0,2.240425567,0,0,0,0.8,12,33,49
184,1,0,1.664947354,0,0,0,0.8,12,60,51
185,1,1,0.519643661,1,0,22,0.8,12,22,1
186,1,1,1.398160744,1,0,19,0.8,12,19,19
187,1,0,4.43183382,0,0,0,0.8,12,21,78
188,1,1,3.183911044,1,0,72,0.8,12,72,62
189,0,0,1.681892302,1,0,80,0.8,12,26,80
190,0,1,0.930256417,0,0,0,0.8,12,28,84
191,1,1,0.229847965,1,0,49,0.8,12,49,69
192,1,1,1.159127619,1,0,23,0.8,12,23,9
193,0,1,1.657778156,0,0,0,0.8,12,36,81
194,0,1,0.301442435,0,0,0,0.8,12,64,14
195,1,0,0.214397668,0,0,0,0.8,12,75,57
196,1,0,1.894145284,0,0,0,0.8,12,50,58
197,0,1,0.368050029,0,0,0,0.8,12,62,2
198,1,1,0.575804086,1,0,32,0.8,12,32,94
199,0,0,1.118521838,1,0,62,0.8,12,31,62
0,1,1,9.182100004,1,1,27,0.75,10,27,15
1,1,1,2.133800664,1,1,78,0.75,10,78,85
2,1,1,1.4287086,1,1,64,0.75,10,64,29
3,1,1,0.871201659,1,1,73,0.75,10,73,91
4,1,1,1.296328159,1,1,90,0.75,10,90,12
5,1,0,1.360535501,0,1,0,0.75,10,77,62
6,1,1,1.933840267,1,1,21,0.75,10,21,29
7,0,1,1.493447205,0,1,0,0.75,10,5,51
8,1,0,1.965228242,0,1,0,0.75,10,16,54
9,1,1,1.466699629,1,1,72,0.75,10,72,6
10,0,1,2.268004906,0,1,0,0.75,10,13,44
11,1,1,1.541442276,1,1,23,0.75,10,23,22
12,0,0,2.971860878,1,1,92,0.75,10,46,92
13,1,1,1.225265111,1,1,47,0.75,10,47,70
14,1,1,1.316588894,1,1,9,0.75,10,9,12
15,1,1,1.627884478,1,1,51,0.75,10,51,36
16,0,1,1.390483935,0,1,0,0.75,10,8,31
17,1,1,1.763925501,1,1,17,0.75,10,17,31
18,1,1,1.937254234,1,1,75,0.75,10,75,57
19,0,1,1.375889903,0,1,0,0.75,10,34,80
20,1,1,0.46063629,1,1,31,0.75,10,31,47
21,1,1,0.510612126,1,1,82,0.75,10,82,80
22,1,1,0.397931275,1,1,99,0.75,10,99,42
23,1,1,0.769891644,1,1,97,0.75,10,97,74
24,1,1,0.615191824,1,1,58,0.75,10,58,36
25,1,1,3.39321843,1,1,24,0.75,10,24,95
26,1,1,1.373245059,1,1,30,0.75,10,30,76
27,1,1,1.082527157,1,1,68,0.75,10,68,2
28,1,1,1.115262005,1,1,58,0.75,10,58,76
29,1,0,1.098567371,0,1,0,0.75,10,20,92
30,1,1,1.210519246,1,1,96,0.75,10,96,35
31,1,1,1.037904397,1,1,34,0.75,10,34,8
32,0,1,1.408543854,0,1,0,0.75,10,15,86
33,1,1,0.628531955,1,1,33,0.75,10,33,10
34,1,0,1.423189805,0,1,0,0.75,10,12,55
35,1,1,1.074543725,1,1,78,0.75,10,78,92
36,1,0,1.051917059,0,1,0,0.75,10,80,53
37,1,1,0.901891749,1,1,59,0.75,10,59,6
38,1,1,3.565801584,1,1,8,0.75,10,8,45
39,0,1,2.851097586,0,1,0,0.75,10,20,70
40,1,0,1.301247472,0,1,0,0.75,10,78,27
41,1,1,1.781256443,1,1,36,0.75,10,36,90
42,1,0,1.017881825,0,1,0,0.75,10,84,46
43,1,1,1.117269635,1,1,14,0.75,10,14,24
44,1,0,1.324500485,0,1,0,0.75,10,70,20
45,0,1,0.947876775,0,1,0,0.75,10,20,85
46,1,0,1.177880086,0,1,0,0.75,10,40,75
47,1,1,0.5346077,1,1,34,0.75,10,34,67
48,1,1,0.59719288,1,1,93,0.75,10,93,11
49,1,1,0.377383476,1,1,84,0.75,10,84,84
50,1,1,1.183196941,1,1,63,0.75,10,63,46
51,1,0,0.883908501,0,1,0,0.75,10,87,66
52,1,1,1.124569368,1,1,22,0.75,10,22,91
53,0,1,0.843991945,0,1,0,0.75,10,7,12
54,1,1,0.453840653,1,1,68,0.75,10,68,61
55,1,0,0.703924493,0,1,0,0.75,10,54,2
56,1,1,0.759858926,1,1,52,0.75,10,52,10
57,0,1,1.294001469,0,1,0,0.75,10,26,91
58,1,0,0.773906602,0,1,0,0.75,10,86,55
59,1,1,0.635212283,1,1,83,0.75,10,83,65
60,0,1,2.17387207,0,1,0,0.75,10,2,24
61,1,1,0.763261121,1,1,48,0.75,10,48,63
62,1,0,0.640566266,0,1,0,0.75,10,95,8
63,1,1,0.62724334,1,1,46,0.75,10,46,65
64,0,1,1.662559944,0,1,0,0.75,10,85,18
65,1,0,0.799893204,0,1,0,0.75,10,54,62
66,1,1,1.539845167,1,1,44,0.75,10,44,98
67,0,0,2.194518575,1,1,67,0.75,10,3,67
68,1,0,1.086558718,0,1,0,0.75,10,51,34
69,1,1,0.847908801,1,1,88,0.75,10,88,46
70,1,1,2.633872052,1,1,91,0.75,10,91,3
71,1,0,0.924562184,0,1,0,0.75,10,29,53
72,0,1,2.411835872,0,1,0,0.75,10,14,99
73,0,1,1.06319915,0,1,0,0.75,10,1,73
74,1,1,0.944539176,1,1,32,0.75,10,32,40
75,1,1,1.700611948,1,1,54,0.75,10,54,60
76,1,1,0.796515761,1,1,83,0.75,10,83,58
77,1,0,1.408602112,0,1,0,0.75,10,68,51
78,1,1,0.548766761,1,1,92,0.75,10,92,15
79,1,0,0.506632787,0,1,0,0.75,10,76,30
80,0,1,1.47459341,0,1,0,0.75,10,17,51
81,1,0,0.643849229,0,1,0,0.75,10,97,15
82,1,0,0.637879464,0,1,0,0.75,10,35,41
83,1,1,0.400564346,1,1,60,0.75,10,60,60
84,1,1,0.372592451,1,1,74,0.75,10,74,81
85,1,1,0.681903949,1,1,88,0.75,10,88,48
86,1,1,0.754614516,1,1,34,0.75,10,34,68
87,1,1,1.136569569,1,1,47,0.75,10,47,76
88,1,1,1.255257012,1,1,17,0.75,10,17,19
89,1,1,0.88924558,1,1,47,0.75,10,47,62
90,1,1,0.857857604,1,1,46,0.75,10,46,77
91,1,1,1.275886613,1,1,13,0.75,10,13,43
92,1,0,1.125137759,0,1,0,0.75,10,64,44
93,1,0,0.772577238,0,1,0,0.75,10,90,49
94,1,1,0.513843472,1,1,43,0.75,10,43,22
95,0,0,1.105324974,1,1,84,0.75,10,18,84
96,1,0,1.089215636,0,1,0,0.75,10,30,51
97,1,1,0.506564266,1,1,6,0.75,10,6,11
98,1,1,1.514508457,1,1,7,0.75,10,7,37
99,0,1,0.873867935,0,1,0,0.75,10,3,83
100,1,0,0.733889831,0,0,0,0.2,10,56,13
101,1,0,0.740546011,0,0,0,0.2,10,57,65
102,1,0,0.435209627,0,0,0,0.2,10,31,74
103,1,0,0.453887742,0,0,0,0.2,10,76,72
104,1,0,0.447954804,0,0,0,0.2,10,68,11
105,0,0,0.945882728,1,0,96,0.2,10,94,96
106,0,1,0.327912943,0,0,0,0.2,10,49,43
107,0,0,2.366511001,1,0,57,0.2,10,52,57
108,0,0,2.443877965,1,0,10,0.2,10,79,10
109,0,0,1.301920606,1,0,49,0.2,10,58,49
110,1,1,0.86195195,1,0,77,0.2,10,77,16
111,1,0,1.007258077,0,0,0,0.2,10,93,31
112,0,1,1.491170321,0,0,0,0.2,10,22,14
113,1,0,0.771947872,0,0,0,0.2,10,61,35
114,0,0,0.73721445,1,0,67,0.2,10,47,67
115,0,1,0.615951288,0,0,0,0.2,10,62,52
116,0,1,0.851206253,0,0,0,0.2,10,21,80
117,0,0,0.75722676,1,0,58,0.2,10,68,58
118,0,0,1.427224686,1,0,7,0.2,10,2,7
119,0,1,0.430562284,0,0,0,0.2,10,23,25
120,1,1,0.585220448,1,0,92,0.2,10,92,91
121,0,0,0.605901063,1,0,89,0.2,10,77,89
122,0,0,0.62588862,1,0,99,0.2,10,54,99
123,0,0,0.477244291,1,0,33,0.2,10,7,33
124,0,0,0.55055434,1,0,99,0.2,10,20,99
125,0,0,0.937241255,1,0,62,0.8,10,2,62
126,0,1,0.375945746,0,0,0,0.8,10,97,66
127,1,0,0.589222427,0,0,0,0.8,10,84,61
128,0,1,0.425907395,0,0,0,0.8,10,45,80
129,1,1,1.261189648,1,0,100,0.8,10,100,62
130,1,1,1.150577703,1,0,80,0.8,10,80,38
131,1,1,1.900492354,1,0,49,0.8,10,49,18
132,0,1,1.404528895,0,0,0,0.8,10,14,6
133,1,1,0.640542419,1,0,22,0.8,10,22,16
134,1,0,0.39525383,0,0,0,0.8,10,84,39
135,1,1,0.583177803,1,0,33,0.8,10,33,2
136,1,1,0.86794375,1,0,74,0.8,10,74,97
137,0,0,0.877216702,1,0,32,0.8,10,16,32
138,1,0,1.31056872,0,0,0,0.8,10,74,96
139,0,0,0.36592631,1,0,3,0.8,10,6,3
140,1,1,1.139207471,1,0,72,0.8,10,72,40
141,0,1,1.106496771,0,0,0,0.8,10,13,28
142,1,1,1.026575519,1,0,99,0.8,10,99,37
143,0,1,0.781909655,0,0,0,0.8,10,60,79
144,1,1,0.290567579,1,0,27,0.8,10,27,45
145,1,1,0.435276639,1,0,44,0.8,10,44,6
146,1,0,0.685892647,0,0,0,0.8,10,94,5
147,1,1,1.566613571,1,0,51,0.8,10,51,54
148,0,1,0.635907151,0,0,0,0.8,10,7,77
149,0,1,1.038922852,0,0,0,0.8,10,66,62
150,0,1,6.375760106,0,0,0,0.2,10,45,94
151,1,0,0.317225806,0,0,0,0.2,10,15,79
152,0,0,0.676549665,1,0,76,0.2,10,78,76
153,0,0,0.574593984,1,0,33,0.2,10,54,33
154,0,0,0.763858792,1,0,53,0.2,10,9,53
155,1,0,0.833312958,0,0,0,0.2,10,91,65
156,1,0,0.723869791,0,0,0,0.2,10,87,52
157,0,1,0.347235215,0,0,0,0.2,10,6,67
158,0,0,0.241223824,1,0,24,0.2,10,65,24
159,1,0,0.61198855,0,0,0,0.2,10,89,99
160,1,0,0.75123496,0,0,0,0.2,10,35,9
161,1,1,0.869201575,1,0,67,0.2,10,67,42
162,0,0,1.03856757,1,0,99,0.2,10,46,99
163,0,0,0.609221455,1,0,49,0.2,10,45,49
164,0,0,0.501308688,1,0,62,0.2,10,2,62
165,1,0,0.709270627,0,0,0,0.2,10,87,2
166,1,0,0.637258551,0,0,0,0.2,10,94,77
167,0,0,0.999899181,1,0,75,0.2,10,48,75
168,1,0,0.787980238,0,0,0,0.2,10,57,22
169,1,1,1.112520568,1,0,100,0.2,10,100,40
170,1,1,0.695948608,1,0,41,0.2,10,41,27
171,1,0,0.863872345,0,0,0,0.2,10,22,8
172,1,1,0.809921092,1,0,87,0.2,10,87,23
173,1,1,0.541910753,1,0,69,0.2,10,69,49
174,1,1,0.372563473,1,0,18,0.8,10,18,52
175,0,1,0.889874341,0,0,0,0.8,10,1,84
176,0,1,1.266536688,0,0,0,0.8,10,17,42
177,1,1,0.651885485,1,0,21,0.8,10,21,41
178,1,0,0.693909283,0,0,0,0.8,10,91,96
179,0,1,0.478579693,0,0,0,0.8,10,71,34
180,1,1,0.455216503,1,0,14,0.8,10,14,14
181,1,1,0.313229562,1,0,43,0.8,10,43,70
182,1,1,0.57652434,1,0,67,0.8,10,67,93
183,1,0,0.357908768,0,0,0,0.8,10,33,49
184,1,0,0.8998648,0,0,0,0.8,10,60,51
185,0,1,0.86793228,0,0,0,0.8,10,22,1
186,1,1,0.789268853,1,0,19,0.8,10,19,19
187,1,0,0.40989465,0,0,0,0.8,10,21,78
188,0,1,0.70188879,0,0,0,0.8,10,72,62
189,1,0,0.317949953,0,0,0,0.8,10,26,80
190,0,1,1.189215605,0,0,0,0.8,10,28,84
191,1,1,1.889892151,1,0,49,0.8,10,49,69
192,1,1,0.666508193,1,0,23,0.8,10,23,9
193,1,1,2.875842361,1,0,36,0.8,10,36,81
194,1,1,0.501269748,1,0,64,0.8,10,64,14
195,1,0,0.685241548,0,0,0,0.8,10,75,57
196,0,0,0.709870109,1,0,58,0.8,10,50,58
197,1,1,0.557927121,1,0,62,0.8,10,62,2
198,0,1,0.955901561,0,0,0,0.8,10,32,94
199,0,0,0.433906222,1,0,62,0.8,10,31,62
0,1,1,16.44892879,1,1,27,0.75,11,27,15
1,1,1,2.184459952,1,1,78,0.75,11,78,85
2,1,1,2.404113656,1,1,64,0.75,11,64,29
3,1,1,2.558655968,1,1,73,0.75,11,73,91
4,1,1,1.755056311,1,1,90,0.75,11,90,12
5,1,0,2.904498866,0,1,0,0.75,11,77,62
6,0,1,2.527323395,0,1,0,0.75,11,21,29
7,0,1,3.428862403,0,1,0,0.75,11,5,51
8,0,0,6.048417673,1,1,54,0.75,11,16,54
9,1,1,2.195304991,1,1,72,0.75,11,72,6
10,0,1,0.88426271,0,1,0,0.75,11,13,44
11,1,1,0.951171186,1,1,23,0.75,11,23,22
12,1,0,1.480846839,0,1,0,0.75,11,46,92
13,0,1,0.909291041,0,1,0,0.75,11,47,70
14,0,1,1.330585358,0,1,0,0.75,11,9,12
15,1,1,15.4760668,1,1,51,0.75,11,51,36
16,1,1,2.910901677,1,1,8,0.75,11,8,31
17,0,1,1.38805924,0,1,0,0.75,11,17,31
18,1,1,1.070882493,1,1,75,0.75,11,75,57
19,0,1,1.461151325,0,1,0,0.75,11,34,80
20,0,1,4.660267681,0,1,0,0.75,11,31,47
21,1,1,2.557158622,1,1,82,0.75,11,82,80
22,1,1,1.036994722,1,1,99,0.75,11,99,42
23,1,1,0.689386271,1,1,97,0.75,11,97,74
24,1,1,1.493460505,1,1,58,0.75,11,58,36
25,0,1,0.849231367,0,1,0,0.75,11,24,95
26,1,1,3.447358351,1,1,30,0.75,11,30,76
27,1,1,1.559428961,1,1,68,0.75,11,68,2
28,1,1,1.540919871,1,1,58,0.75,11,58,76
29,0,0,1.334804488,1,1,92,0.75,11,20,92
30,1,1,0.817580453,1,1,96,0.75,11,96,35
31,1,1,1.031738833,1,1,34,0.75,11,34,8
32,0,1,1.99591628,0,1,0,0.75,11,15,86
33,1,1,0.844525453,1,1,33,0.75,11,33,10
34,0,0,1.573680175,1,1,55,0.75,11,12,55
35,1,1,2.486897098,1,1,78,0.75,11,78,92
36,1,0,0.917334917,0,1,0,0.75,11,80,53
37,1,1,0.665028381,1,1,59,0.75,11,59,6
38,0,1,1.127319357,0,1,0,0.75,11,8,45
39,0,1,0.801180465,0,1,0,0.75,11,20,70
40,1,0,4.99532898,0,1,0,0.75,11,78,27
41,0,1,0.80281638,0,1,0,0.75,11,36,90
42,1,0,0.901356215,0,1,0,0.75,11,84,46
43,0,1,1.034857533,0,1,0,0.75,11,14,24
44,1,0,0.803745191,0,1,0,0.75,11,70,20
45,0,1,0.523682575,0,1,0,0.75,11,20,85
46,1,0,1.675673009,0,1,0,0.75,11,40,75
47,1,1,1.638182491,1,1,34,0.75,11,34,67
48,1,1,1.098296155,1,1,93,0.75,11,93,11
49,1,1,1.719081944,1,1,84,0.75,11,84,84
50,1,1,3.10557806,1,1,63,0.75,11,63,46
51,1,0,0.810229471,0,1,0,0.75,11,87,66
52,0,1,5.473545004,0,1,0,0.75,11,22,91
53,0,1,0.583043388,0,1,0,0.75,11,7,12
54,0,1,1.427520223,0,1,0,0.75,11,68,61
55,1,0,1.736701593,0,1,0,0.75,11,54,2
56,1,1,1.471571091,1,1,52,0.75,11,52,10
57,0,1,1.578900605,0,1,0,0.75,11,26,91
58,1,0,0.928824464,0,1,0,0.75,11,86,55
59,1,1,0.934713756,1,1,83,0.75,11,83,65
60,0,1,0.792704848,0,1,0,0.75,11,2,24
61,0,1,1.346142816,0,1,0,0.75,11,48,63
62,1,0,0.932333859,0,1,0,0.75,11,95,8
63,1,1,1.183930127,1,1,46,0.75,11,46,65
64,1,1,3.896313568,1,1,85,0.75,11,85,18
65,1,0,5.165599466,0,1,0,0.75,11,54,62
66,0,1,4.141806306,0,1,0,0.75,11,44,98
67,0,0,3.11519273,1,1,67,0.75,11,3,67
68,0,0,0.66799049,1,1,34,0.75,11,51,34
69,0,1,0.392737595,0,1,0,0.75,11,88,46
70,1,1,1.138697418,1,1,91,0.75,11,91,3
71,0,0,0.975401986,1,1,53,0.75,11,29,53
72,0,1,0.851938445,0,1,0,0.75,11,14,99
73,0,1,0.555257801,0,1,0,0.75,11,1,73
74,0,1,0.973576393,0,1,0,0.75,11,32,40
75,1,1,1.377951879,1,1,54,0.75,11,54,60
76,1,1,1.261426853,1,1,83,0.75,11,83,58
77,1,0,0.662564952,0,1,0,0.75,11,68,51
78,1,1,0.636573926,1,1,92,0.75,11,92,15
79,1,0,0.813863391,0,1,0,0.75,11,76,30
80,0,1,1.681317495,0,1,0,0.75,11,17,51
81,1,0,0.609390393,0,1,0,0.75,11,97,15
82,1,0,1.110388616,0,1,0,0.75,11,35,41
83,1,1,1.142311883,1,1,60,0.75,11,60,60
84,1,1,1.499701134,1,1,74,0.75,11,74,81
85,1,1,1.343319651,1,1,88,0.75,11,88,48
86,1,1,1.186334526,1,1,34,0.75,11,34,68
87,1,1,0.731309228,1,1,47,0.75,11,47,76
88,1,1,0.93832807,1,1,17,0.75,11,17,19
89,1,1,0.77154439,1,1,47,0.75,11,47,62
90,1,1,0.65622914,1,1,46,0.75,11,46,77
91,1,1,0.585284795,1,1,13,0.75,11,13,43
92,1,0,0.547749082,0,1,0,0.75,11,64,44
93,1,0,0.954474456,0,1,0,0.75,11,90,49
94,0,1,1.352736265,0,1,0,0.75,11,43,22
95,0,0,2.035747423,1,1,84,0.75,11,18,84
96,1,0,0.933777926,0,1,0,0.75,11,30,51
97,1,1,1.105402236,1,1,6,0.75,11,6,11
98,0,1,0.840763013,0,1,0,0.75,11,7,37
99,0,1,0.780261526,0,1,0,0.75,11,3,83
100,1,0,0.845403389,0,0,0,0.2,11,56,13
101,0,0,0.5987295,1,0,65,0.2,11,57,65
102,0,0,0.79757018,1,0,74,0.2,11,31,74
103,0,0,0.902508031,1,0,72,0.2,11,76,72
104,1,0,1.279467038,0,0,0,0.2,11,68,11
105,0,0,0.780470041,1,0,96,0.2,11,94,96
106,0,1,0.868092345,0,0,0,0.2,11,49,43
107,0,0,0.861086101,1,0,57,0.2,11,52,57
108,0,0,0.724347698,1,0,10,0.2,11,79,10
109,0,0,0.641721028,1,0,49,0.2,11,58,49
110,1,1,0.923519475,1,0,77,0.2,11,77,16
111,1,0,1.098856273,0,0,0,0.2,11,93,31
112,0,1,0.789103258,0,0,0,0.2,11,22,14
113,0,0,0.70284467,1,0,35,0.2,11,61,35
114,0,0,0.754158518,1,0,67,0.2,11,47,67
115,0,1,1.749313547,0,0,0,0.2,11,62,52
116,0,1,1.282732147,0,0,0,0.2,11,21,80
117,0,0,1.162901226,1,0,58,0.2,11,68,58
118,0,0,1.12253436,1,0,7,0.2,11,2,7
119,0,1,0.645987035,0,0,0,0.2,11,23,25
120,0,1,0.89167218,0,0,0,0.2,11,92,91
121,0,0,0.617943121,1,0,89,0.2,11,77,89
122,0,0,0.755796704,1,0,99,0.2,11,54,99
123,0,0,0.911513193,1,0,33,0.2,11,7,33
124,0,0,0.652004244,1,0,99,0.2,11,20,99
125,0,0,1.240353928,1,0,62,0.8,11,2,62
126,0,1,0.672990746,0,0,0,0.8,11,97,66
127,0,0,1.534088988,1,0,61,0.8,11,84,61
128,0,1,0.631847086,0,0,0,0.8,11,45,80
129,0,1,1.13418173,0,0,0,0.8,11,100,62
130,0,1,1.461477583,0,0,0,0.8,11,80,38
131,1,1,0.767486473,1,0,49,0.8,11,49,18
132,1,1,0.687511455,1,0,14,0.8,11,14,6
133,1,1,0.701868705,1,0,22,0.8,11,22,16
134,1,0,0.603065181,0,0,0,0.8,11,84,39
135,1,1,0.505670791,1,0,33,0.8,11,33,2
136,0,1,1.228226755,0,0,0,0.8,11,74,97
137,0,0,1.090564751,1,0,32,0.8,11,16,32
138,1,0,0.960859873,0,0,0,0.8,11,74,96
139,1,0,0.791491659,0,0,0,0.8,11,6,3
140,1,1,1.228169674,1,0,72,0.8,11,72,40
141,0,1,1.216213844,0,0,0,0.8,11,13,28
142,1,1,0.607894403,1,0,99,0.8,11,99,37
143,1,1,1.390634023,1,0,60,0.8,11,60,79
144,1,1,0.798842926,1,0,27,0.8,11,27,45
145,1,1,0.759357971,1,0,44,0.8,11,44,6
146,1,0,0.43510638,0,0,0,0.8,11,94,5
147,1,1,0.570292177,1,0,51,0.8,11,51,54
148,0,1,0.726836986,0,0,0,0.8,11,7,77
149,1,1,0.944711218,1,0,66,0.8,11,66,62
150,0,1,3.70454,0,0,0,0.2,11,45,94
151,1,0,0.38637045,0,0,0,0.2,11,15,79
152,0,0,0.67119033,1,0,76,0.2,11,78,76
153,0,0,0.73300854,1,0,33,0.2,11,54,33
154,0,0,0.63400472,1,0,53,0.2,11,9,53
155,0,0,0.555078572,1,0,65,0.2,11,91,65
156,1,0,1.038913478,0,0,0,0.2,11,87,52
157,0,1,0.653871086,0,0,0,0.2,11,6,67
158,0,0,1.463845651,1,0,24,0.2,11,65,24
159,0,0,3.036752154,1,0,99,0.2,11,89,99
160,1,0,0.669511651,0,0,0,0.2,11,35,9
161,1,1,1.632311116,1,0,67,0.2,11,67,42
162,0,0,0.994933075,1,0,99,0.2,11,46,99
163,1,0,1.117133569,0,0,0,0.2,11,45,49
164,0,0,0.661665105,1,0,62,0.2,11,2,62
165,1,0,0.651149038,0,0,0,0.2,11,87,2
166,0,0,0.674712741,1,0,77,0.2,11,94,77
167,0,0,0.871205041,1,0,75,0.2,11,48,75
168,0,0,1.068540798,1,0,22,0.2,11,57,22
169,1,1,1.383241085,1,0,100,0.2,11,100,40
170,1,1,1.724185862,1,0,41,0.2,11,41,27
171,1,0,0.811921758,0,0,0,0.2,11,22,8
172,1,1,0.676447286,1,0,87,0.2,11,87,23
173,1,1,0.802020033,1,0,69,0.2,11,69,49
174,0,1,0.81546819,0,0,0,0.8,11,18,52
175,0,1,0.626311883,0,0,0,0.8,11,1,84
176,1,1,1.067472271,1,0,17,0.8,11,17,42
177,1,1,0.987597265,1,0,21,0.8,11,21,41
178,1,0,0.556593961,0,0,0,0.8,11,91,96
179,1,1,1.01840679,1,0,71,0.8,11,71,34
180,1,1,1.054338423,1,0,14,0.8,11,14,14
181,0,1,1.430044415,0,0,0,0.8,11,43,70
182,1,1,0.64274471,1,0,67,0.8,11,67,93
183,1,0,1.348522181,0,0,0,0.8,11,33,49
184,1,0,0.572010458,0,0,0,0.8,11,60,51
185,1,1,0.568512983,1,0,22,0.8,11,22,1
186,1,1,0.827783182,1,0,19,0.8,11,19,19
187,0,0,0.772354948,1,0,78,0.8,11,21,78
188,1,1,1.107870958,1,0,72,0.8,11,72,62
189,0,0,1.01830376,1,0,80,0.8,11,26,80
190,0,1,0.711049518,0,0,0,0.8,11,28,84
191,0,1,0.538246826,0,0,0,0.8,11,49,69
192,1,1,1.036566636,1,0,23,0.8,11,23,9
193,0,1,0.943057825,0,0,0,0.8,11,36,81
194,1,1,0.597419515,1,0,64,0.8,11,64,14
195,1,0,0.698684113,0,0,0,0.8,11,75,57
196,1,0,1.128500943,0,0,0,0.8,11,50,58
197,1,1,0.544779298,1,0,62,0.8,11,62,2
198,0,1,0.996936402,0,0,0,0.8,11,32,94
199,0,0,0.75225683,1,0,62,0.8,11,31,62
0,1,1,0.819727403,1,1,27,0.75,15,27,15
1,1,1,1.202021704,1,1,78,0.75,15,78,85
2,1,1,0.990328737,1,1,64,0.75,15,64,29
3,1,1,1.418620981,1,1,73,0.75,15,73,91
4,1,1,0.834515479,1,1,90,0.75,15,90,12
5,1,0,0.84475925,0,1,0,0.75,15,77,62
6,0,1,1.040123192,0,1,0,0.75,15,21,29
7,0,1,1.032139728,0,1,0,0.75,15,5,51
8,1,0,1.320890085,0,1,0,0.75,15,16,54
9,1,1,0.757679602,1,1,72,0.75,15,72,6
10,0,1,1.14510187,0,1,0,0.75,15,13,44
11,1,1,0.772630138,1,1,23,0.75,15,23,22
12,1,0,0.677292681,0,1,0,0.75,15,46,92
13,1,1,0.899269479,1,1,47,0.75,15,47,70
14,0,1,0.742387606,0,1,0,0.75,15,9,12
15,1,1,0.903639179,1,1,51,0.75,15,51,36
16,0,1,0.854186549,0,1,0,0.75,15,8,31
17,0,1,1.325404162,0,1,0,0.75,15,17,31
18,1,1,0.756237914,1,1,75,0.75,15,75,57
19,0,1,0.9966377,0,1,0,0.75,15,34,80
20,1,1,1.464036102,1,1,31,0.75,15,31,47
21,1,1,0.610533331,1,1,82,0.75,15,82,80
22,1,1,0.44195085,1,1,99,0.75,15,99,42
23,1,1,0.533412503,1,1,97,0.75,15,97,74
24,1,1,0.495550434,1,1,58,0.75,15,58,36
25,0,1,1.430003075,0,1,0,0.75,15,24,95
26,1,1,0.678890885,1,1,30,0.75,15,30,76
27,1,1,0.606869998,1,1,68,0.75,15,68,2
28,1,1,0.608986829,1,1,58,0.75,15,58,76
29,0,0,1.393240728,1,1,92,0.75,15,20,92
30,1,1,0.634280638,1,1,96,0.75,15,96,35
31,1,1,0.620072016,1,1,34,0.75,15,34,8
32,0,1,1.05659315,0,1,0,0.75,15,15,86
33,1,1,1.02009114,1,1,33,0.75,15,33,10
34,1,0,0.920422316,0,1,0,0.75,15,12,55
35,1,1,0.551449889,1,1,78,0.75,15,78,92
36,1,0,0.502522608,0,1,0,0.75,15,80,53
37,1,1,0.660914537,1,1,59,0.75,15,59,6
38,0,1,0.985654812,0,1,0,0.75,15,8,45
39,0,1,1.300902835,0,1,0,0.75,15,20,70
40,1,0,0.62931584,0,1,0,0.75,15,78,27
41,1,1,0.824161075,1,1,36,0.75,15,36,90
42,1,0,0.59003431,0,1,0,0.75,15,84,46
43,0,1,1.086700944,0,1,0,0.75,15,14,24
44,1,0,0.57827748,0,1,0,0.75,15,70,20
45,0,1,0.901016805,0,1,0,0.75,15,20,85
46,0,0,1.156010556,1,1,75,0.75,15,40,75
47,0,1,0.814269871,0,1,0,0.75,15,34,67
48,1,1,0.709579415,1,1,93,0.75,15,93,11
49,1,1,2.147494618,1,1,84,0.75,15,84,84
50,1,1,1.162737947,1,1,63,0.75,15,63,46
51,1,0,0.75693493,0,1,0,0.75,15,87,66
52,0,1,1.5149078,0,1,0,0.75,15,22,91
53,0,1,0.848083419,0,1,0,0.75,15,7,12
54,1,1,0.865218919,1,1,68,0.75,15,68,61
55,1,0,0.531472718,0,1,0,0.75,15,54,2
56,1,1,0.574292059,1,1,52,0.75,15,52,10
57,0,1,0.714170008,0,1,0,0.75,15,26,91
58,1,0,0.751606748,0,1,0,0.75,15,86,55
59,1,1,0.924354434,1,1,83,0.75,15,83,65
60,0,1,0.834006969,0,1,0,0.75,15,2,24
61,1,1,1.041516126,1,1,48,0.75,15,48,63
62,1,0,0.492600395,0,1,0,0.75,15,95,8
63,1,1,0.420649166,1,1,46,0.75,15,46,65
64,1,1,0.655631276,1,1,85,0.75,15,85,18
65,1,0,0.952979912,0,1,0,0.75,15,54,62
66,0,1,1.057966988,0,1,0,0.75,15,44,98
67,0,0,0.767399924,1,1,67,0.75,15,3,67
68,1,0,0.937629722,0,1,0,0.75,15,51,34
69,1,1,0.669733802,1,1,88,0.75,15,88,46
70,1,1,0.624645381,1,1,91,0.75,15,91,3
71,1,0,1.386873536,0,1,0,0.75,15,29,53
72,0,1,0.680271575,0,1,0,0.75,15,14,99
73,0,1,0.607113355,0,1,0,0.75,15,1,73
74,1,1,0.760097765,1,1,32,0.75,15,32,40
75,1,1,0.862959321,1,1,54,0.75,15,54,60
76,1,1,0.706011521,1,1,83,0.75,15,83,58
77,1,0,0.677233805,0,1,0,0.75,15,68,51
78,1,1,0.666591776,1,1,92,0.75,15,92,15
79,1,0,0.658159708,0,1,0,0.75,15,76,30
80,0,1,1.066172602,0,1,0,0.75,15,17,51
81,1,0,1.458783242,0,1,0,0.75,15,97,15
82,1,0,0.5988011,0,1,0,0.75,15,35,41
83,1,1,1.209071749,1,1,60,0.75,15,60,60
84,0,1,1.490763084,0,1,0,0.75,15,74,81
85,1,1,0.843741486,1,1,88,0.75,15,88,48
86,1,1,0.688012294,1,1,34,0.75,15,34,68
87,1,1,0.886230814,1,1,47,0.75,15,47,76
88,0,1,0.717020636,0,1,0,0.75,15,17,19
89,1,1,0.616079375,1,1,47,0.75,15,47,62
90,1,1,0.794015391,1,1,46,0.75,15,46,77
91,0,1,0.931008691,0,1,0,0.75,15,13,43
92,1,0,0.606382986,0,1,0,0.75,15,64,44
93,1,0,0.463318084,0,1,0,0.75,15,90,49
94,1,1,0.665508843,1,1,43,0.75,15,43,22
95,0,0,0.840904179,1,1,84,0.75,15,18,84
96,1,0,1.145171208,0,1,0,0.75,15,30,51
97,0,1,0.756798901,0,1,0,0.75,15,6,11
98,0,1,0.650759473,0,1,0,0.75,15,7,37
99,0,1,1.087962559,0,1,0,0.75,15,3,83
100,1,0,0.725466048,0,0,0,0.2,15,56,13
101,1,0,0.827928828,0,0,0,0.2,15,57,65
102,0,0,0.410238859,1,0,74,0.2,15,31,74
103,0,0,0.432382637,1,0,72,0.2,15,76,72
104,0,0,0.63482265,1,0,11,0.2,15,68,11
105,0,0,0.76157969,1,0,96,0.2,15,94,96
106,0,1,0.835410793,0,0,0,0.2,15,49,43
107,0,0,0.78748498,1,0,57,0.2,15,52,57
108,0,0,0.391329471,1,0,10,0.2,15,79,10
109,0,0,0.538975458,1,0,49,0.2,15,58,49
110,0,1,0.610390829,0,0,0,0.2,15,77,16
111,0,0,0.914892136,1,0,31,0.2,15,93,31
112,0,1,0.613745653,0,0,0,0.2,15,22,14
113,0,0,0.671536906,1,0,35,0.2,15,61,35
114,0,0,0.979844076,1,0,67,0.2,15,47,67
115,0,1,0.580666764,0,0,0,0.2,15,62,52
116,0,1,0.473900599,0,0,0,0.2,15,21,80
117,0,0,0.585817727,1,0,58,0.2,15,68,58
118,0,0,0.448293952,1,0,7,0.2,15,2,7
119,0,1,0.365773844,0,0,0,0.2,15,23,25
120,0,1,0.411193078,0,0,0,0.2,15,92,91
121,0,0,0.663905585,1,0,89,0.2,15,77,89
122,0,0,0.513548622,1,0,99,0.2,15,54,99
123,0,0,0.574112641,1,0,33,0.2,15,7,33
124,0,0,0.490980334,1,0,99,0.2,15,20,99
125,0,0,1.179075852,1,0,62,0.8,15,2,62
126,0,1,0.980088469,0,0,0,0.8,15,97,66
127,0,0,0.979440939,1,0,61,0.8,15,84,61
128,1,1,1.433320298,1,0,45,0.8,15,45,80
129,1,1,0.942195738,1,0,100,0.8,15,100,62
130,1,1,1.041545304,1,0,80,0.8,15,80,38
131,1,1,0.802259374,1,0,49,0.8,15,49,18
132,1,1,0.856807955,1,0,14,0.8,15,14,6
133,1,1,0.876126455,1,0,22,0.8,15,22,16
134,1,0,0.65054545,0,0,0,0.8,15,84,39
135,1,1,1.058425489,1,0,33,0.8,15,33,2
136,1,1,1.547421432,1,0,74,0.8,15,74,97
137,1,0,1.602896894,0,0,0,0.8,15,16,32
138,1,0,1.020558614,0,0,0,0.8,15,74,96
139,1,0,1.048221599,0,0,0,0.8,15,6,3
140,1,1,1.202735019,1,0,72,0.8,15,72,40
141,0,1,2.026147036,0,0,0,0.8,15,13,28
142,1,1,1.203057684,1,0,99,0.8,15,99,37
143,1,1,0.897717328,1,0,60,0.8,15,60,79
144,1,1,1.054217732,1,0,27,0.8,15,27,45
145,1,1,0.610484143,1,0,44,0.8,15,44,6
146,1,0,0.472527674,0,0,0,0.8,15,94,5
147,1,1,0.825404379,1,0,51,0.8,15,51,54
148,0,1,1.564610426,0,0,0,0.8,15,7,77
149,1,1,0.736868249,1,0,66,0.8,15,66,62
150,0,1,1.378753368,0,0,0,0.2,15,45,94
151,0,0,0.627379451,1,0,79,0.2,15,15,79
152,1,0,1.013769917,0,0,0,0.2,15,78,76
153,1,0,0.844183474,0,0,0,0.2,15,54,33
154,0,0,0.522727585,1,0,53,0.2,15,9,53
155,0,0,0.603109579,1,0,65,0.2,15,91,65
156,0,0,0.549142554,1,0,52,0.2,15,87,52
157,0,1,0.573334685,0,0,0,0.2,15,6,67
158,0,0,1.027432372,1,0,24,0.2,15,65,24
159,0,0,1.058041857,1,0,99,0.2,15,89,99
160,1,0,0.947927317,0,0,0,0.2,15,35,9
161,0,1,1.015529506,0,0,0,0.2,15,67,42
162,0,0,0.959983963,1,0,99,0.2,15,46,99
163,0,0,0.718553329,1,0,49,0.2,15,45,49
164,0,0,0.564431661,1,0,62,0.2,15,2,62
165,1,0,0.781423884,0,0,0,0.2,15,87,2
166,0,0,0.67171957,1,0,77,0.2,15,94,77
167,0,0,0.811164432,1,0,75,0.2,15,48,75
168,0,0,0.489035884,1,0,22,0.2,15,57,22
169,0,1,0.67886457,0,0,0,0.2,15,100,40
170,0,1,1.914062745,0,0,0,0.2,15,41,27
171,1,0,1.392298922,0,0,0,0.2,15,22,8
172,0,1,1.085365957,0,0,0,0.2,15,87,23
173,0,1,0.791338314,0,0,0,0.2,15,69,49
174,0,1,2.092290223,0,0,0,0.8,15,18,52
175,0,1,0.788439277,0,0,0,0.8,15,1,84
176,0,1,0.720616932,0,0,0,0.8,15,17,42
177,0,1,0.997746279,0,0,0,0.8,15,21,41
178,1,0,1.550170919,0,0,0,0.8,15,91,96
179,1,1,2.488477022,1,0,71,0.8,15,71,34
180,1,1,1.229198222,1,0,14,0.8,15,14,14
181,1,1,0.359589406,1,0,43,0.8,15,43,70
182,1,1,0.388175366,1,0,67,0.8,15,67,93
183,1,0,0.547230861,0,0,0,0.8,15,33,49
184,1,0,0.547143351,0,0,0,0.8,15,60,51
185,1,1,0.922679099,1,0,22,0.8,15,22,1
186,1,1,0.891600135,1,0,19,0.8,15,19,19
187,1,0,0.514322602,0,0,0,0.8,15,21,78
188,1,1,1.037769577,1,0,72,0.8,15,72,62
189,1,0,0.887994789,0,0,0,0.8,15,26,80
190,1,1,1.337293251,1,0,28,0.8,15,28,84
191,1,1,0.525599297,1,0,49,0.8,15,49,69
192,1,1,0.534585252,1,0,23,0.8,15,23,9
193,1,1,0.418631355,1,0,36,0.8,15,36,81
194,1,1,0.448098815,1,0,64,0.8,15,64,14
195,1,0,0.411834379,0,0,0,0.8,15,75,57
196,1,0,0.538513835,0,0,0,0.8,15,50,58
197,1,1,0.600124094,1,0,62,0.8,15,62,2
198,1,1,0.842911597,1,0,32,0.8,15,32,94
199,0,0,0.814870723,1,0,62,0.8,15,31,62
0,1,1,3.448396035,1,1,27,0.75,14,27,15
1,0,1,2.69619766,0,1,0,0.75,14,78,85
2,1,1,0.909663605,1,1,64,0.75,14,64,29
3,1,1,2.051371028,1,1,73,0.75,14,73,91
4,1,1,1.116791947,1,1,90,0.75,14,90,12
5,1,0,1.037585111,0,1,0,0.75,14,77,62
6,1,1,1.774885918,1,1,21,0.75,14,21,29
7,0,1,2.24671228,0,1,0,0.75,14,5,51
8,1,0,2.602551478,0,1,0,0.75,14,16,54
9,1,1,1.408729097,1,1,72,0.75,14,72,6
10,1,1,4.49707142,1,1,13,0.75,14,13,44
11,1,1,0.80155005,1,1,23,0.75,14,23,22
12,1,0,1.859216,0,1,0,0.75,14,46,92
13,1,1,1.571549221,1,1,47,0.75,14,47,70
14,1,1,2.500042905,1,1,9,0.75,14,9,12
15,1,1,1.07821308,1,1,51,0.75,14,51,36
16,1,1,3.856842593,1,1,8,0.75,14,8,31
17,1,1,1.306900415,1,1,17,0.75,14,17,31
18,1,1,0.82142368,1,1,75,0.75,14,75,57
19,1,1,1.238230845,1,1,34,0.75,14,34,80
20,1,1,0.96038175,1,1,31,0.75,14,31,47
21,1,1,0.80609105,1,1,82,0.75,14,82,80
22,1,1,1.067602868,1,1,99,0.75,14,99,42
23,1,1,1.233777963,1,1,97,0.75,14,97,74
24,1,1,1.012844527,1,1,58,0.75,14,58,36
25,1,1,4.6512739,1,1,24,0.75,14,24,95
26,1,1,1.677511156,1,1,30,0.75,14,30,76
27,1,1,1.016784766,1,1,68,0.75,14,68,2
28,1,1,5.38361101,1,1,58,0.75,14,58,76
29,0,0,6.004225398,1,1,92,0.75,14,20,92
30,1,1,1.016464054,1,1,96,0.75,14,96,35
31,1,1,0.690751591,1,1,34,0.75,14,34,8
32,0,1,3.086029072,0,1,0,0.75,14,15,86
33,1,1,0.757235741,1,1,33,0.75,14,33,10
34,0,0,3.214437275,1,1,55,0.75,14,12,55
35,1,1,0.966670323,1,1,78,0.75,14,78,92
36,1,0,0.671857856,0,1,0,0.75,14,80,53
37,1,1,0.552869023,1,1,59,0.75,14,59,6
38,0,1,2.885113809,0,1,0,0.75,14,8,45
39,1,1,3.90329695,1,1,20,0.75,14,20,70
40,1,0,0.828835062,0,1,0,0.75,14,78,27
41,1,1,0.910637813,1,1,36,0.75,14,36,90
42,1,0,0.696251336,0,1,0,0.75,14,84,46
43,1,1,0.865421845,1,1,14,0.75,14,14,24
44,1,0,0.742945983,0,1,0,0.75,14,70,20
45,0,1,2.353383033,0,1,0,0.75,14,20,85
46,1,0,1.229140599,0,1,0,0.75,14,40,75
47,1,1,2.122326081,1,1,34,0.75,14,34,67
48,1,1,0.976389468,1,1,93,0.75,14,93,11
49,1,1,1.30560923,1,1,84,0.75,14,84,84
50,1,1,1.304670748,1,1,63,0.75,14,63,46
51,1,0,0.779063678,0,1,0,0.75,14,87,66
52,0,1,3.536769423,0,1,0,0.75,14,22,91
53,1,1,0.936088137,1,1,7,0.75,14,7,12
54,1,1,0.792241126,1,1,68,0.75,14,68,61
55,1,0,0.667766768,0,1,0,0.75,14,54,2
56,1,1,0.64284758,1,1,52,0.75,14,52,10
57,0,1,2.876111075,0,1,0,0.75,14,26,91
58,1,0,0.619780802,0,1,0,0.75,14,86,55
59,1,1,0.708439381,1,1,83,0.75,14,83,65
60,0,1,1.062059701,0,1,0,0.75,14,2,24
61,1,1,1.094037396,1,1,48,0.75,14,48,63
62,1,0,0.565662456,0,1,0,0.75,14,95,8
63,1,1,0.882259325,1,1,46,0.75,14,46,65
64,1,1,0.939482605,1,1,85,0.75,14,85,18
65,1,0,0.748464645,0,1,0,0.75,14,54,62
66,1,1,4.484359891,1,1,44,0.75,14,44,98
67,0,0,1.018103151,1,1,67,0.75,14,3,67
68,1,0,0.837611021,0,1,0,0.75,14,51,34
69,1,1,0.47628089,1,1,88,0.75,14,88,46
70,1,1,2.217181566,1,1,91,0.75,14,91,3
71,1,0,2.317728438,0,1,0,0.75,14,29,53
72,0,1,2.373954586,0,1,0,0.75,14,14,99
73,0,1,0.872002526,0,1,0,0.75,14,1,73
74,1,1,1.021711786,1,1,32,0.75,14,32,40
75,1,1,1.005312051,1,1,54,0.75,14,54,60
76,1,1,0.860238412,1,1,83,0.75,14,83,58
77,1,0,0.699953508,0,1,0,0.75,14,68,51
78,1,1,0.779527741,1,1,92,0.75,14,92,15
79,1,0,0.856918775,0,1,0,0.75,14,76,30
80,1,1,3.13258743,1,1,17,0.75,14,17,51
81,1,0,0.733911412,0,1,0,0.75,14,97,15
82,1,0,1.010050038,0,1,0,0.75,14,35,41
83,1,1,0.88639108,1,1,60,0.75,14,60,60
84,1,1,1.153039098,1,1,74,0.75,14,74,81
85,1,1,1.218446334,1,1,88,0.75,14,88,48
86,1,1,2.298119372,1,1,34,0.75,14,34,68
87,1,1,1.540213988,1,1,47,0.75,14,47,76
88,1,1,1.100692741,1,1,17,0.75,14,17,19
89,1,1,1.057283287,1,1,47,0.75,14,47,62
90,1,1,3.333189594,1,1,46,0.75,14,46,77
91,1,1,8.333910536,1,1,13,0.75,14,13,43
92,1,0,1.293629295,0,1,0,0.75,14,64,44
93,1,0,1.125547498,0,1,0,0.75,14,90,49
94,1,1,0.913976392,1,1,43,0.75,14,43,22
95,0,0,3.640449378,1,1,84,0.75,14,18,84
96,1,0,1.366347298,0,1,0,0.75,14,30,51
97,1,1,1.09791265,1,1,6,0.75,14,6,11
98,0,1,1.475098527,0,1,0,0.75,14,7,37
99,0,1,1.151472711,0,1,0,0.75,14,3,83
100,1,0,0.823107935,0,0,0,0.2,14,56,13
101,1,0,0.910539978,0,0,0,0.2,14,57,65
102,1,0,3.156013052,0,0,0,0.2,14,31,74
103,1,0,1.1658648,0,0,0,0.2,14,76,72
104,1,0,1.142940403,0,0,0,0.2,14,68,11
105,1,0,1.077748634,0,0,0,0.2,14,94,96
106,1,1,0.90417482,1,0,49,0.2,14,49,43
107,1,0,1.656469256,0,0,0,0.2,14,52,57
108,1,0,1.069444445,0,0,0,0.2,14,79,10
109,1,0,0.695758418,0,0,0,0.2,14,58,49
110,1,1,1.230854006,1,0,77,0.2,14,77,16
111,1,0,1.097762866,0,0,0,0.2,14,93,31
112,1,1,1.305923326,1,0,22,0.2,14,22,14
113,1,0,0.735902813,0,0,0,0.2,14,61,35
114,1,0,0.6668591,0,0,0,0.2,14,47,67
115,1,1,1.356552038,1,0,62,0.2,14,62,52
116,0,1,1.334460568,0,0,0,0.2,14,21,80
117,1,0,0.82075205,0,0,0,0.2,14,68,58
118,0,0,2.1951686,1,0,7,0.2,14,2,7
